Folder: marimo-notebooks/data/phase_2a/Sergey/1/8.3/02 polarisation (part 2)

File: SN50_C5D1E2_mr2_0,1MFeCN6_in_1M_KCl_3306mL_symmetric_balanced_4_point_PEIS_10mHz_200kHz_10mV_04_CA_C16.txt
time/s	<I>/mA	Ewe/V
27/08/2025 01:27:52.3641	2,421508564228325E+002	-2,0735073E-003
27/08/2025 01:28:16.3641	7,847348947620361E+000	-2,1308069E-003
27/08/2025 01:28:40.3641	1,370191171908377E+000	-2,1308069E-003
27/08/2025 01:29:04.3641	2,444375528955459E+000	-2,1308069E-003
27/08/2025 01:29:28.3641	2,911706607580186E+000	-2,0353077E-003
27/08/2025 01:29:52.3641	3,041627552700042E+000	-2,1308069E-003
27/08/2025 01:30:16.3641	3,014479910707472E+000	-2,2454057E-003
27/08/2025 01:30:40.3641	2,962941416358947E+000	-1,9589085E-003
27/08/2025 01:31:04.3641	2,917978552627561E+000	-2,1117069E-003
27/08/2025 01:31:28.3641	2,882866408348082E+000	-2,1117069E-003
27/08/2025 01:31:52.3641	2,848882523393627E+000	-2,1690065E-003
27/08/2025 01:32:16.3641	2,809930636024468E+000	-2,2454057E-003
27/08/2025 01:32:40.3641	2,775858148384094E+000	-2,0544075E-003
27/08/2025 01:33:04.3641	2,742486939191818E+000	-2,1308069E-003
27/08/2025 01:33:28.3641	2,707606326818466E+000	-2,1117069E-003
27/08/2025 01:33:52.3641	2,674545756769180E+000	-2,0926071E-003
27/08/2025 01:34:16.3641	2,644305452013015E+000	-2,0735073E-003
27/08/2025 01:34:40.3641	2,609533617067335E+000	-2,1499067E-003
27/08/2025 01:35:04.3641	2,570034916496276E+000	-2,2645055E-003
27/08/2025 01:35:28.3641	2,541279533433913E+000	-2,0926071E-003
27/08/2025 01:35:52.3641	2,503983304071422E+000	-2,1308069E-003
27/08/2025 01:36:16.3641	2,483755986118318E+000	-2,0926071E-003
27/08/2025 01:36:40.3641	2,453187164115903E+000	-2,1308069E-003
27/08/2025 01:37:04.3641	2,420325733375549E+000	-2,2454057E-003
27/08/2025 01:37:28.3641	2,388621172571177E+000	-2,1308069E-003
27/08/2025 01:37:52.3641	2,363909225511550E+000	-2,1308069E-003
27/08/2025 01:38:16.3641	2,335785439968106E+000	-2,2263059E-003
27/08/2025 01:38:40.3641	2,313168343973157E+000	-2,0544075E-003
27/08/2025 01:39:04.3641	2,282620212507247E+000	-2,2454057E-003
27/08/2025 01:39:28.3641	2,250705441284179E+000	-2,0926071E-003
27/08/2025 01:39:52.3641	2,230169004154206E+000	-2,2836053E-003
27/08/2025 01:40:16.3641	2,207157397556303E+000	-2,0926071E-003
27/08/2025 01:40:40.3641	2,177769615888597E+000	-2,1881063E-003
27/08/2025 01:41:04.3641	2,155818477869033E+000	-2,2454057E-003
27/08/2025 01:41:28.3641	2,130502427482604E+000	-2,0926071E-003
27/08/2025 01:41:52.3641	2,112860150337220E+000	-2,0926071E-003
27/08/2025 01:42:16.3641	2,093085035896301E+000	-2,0735073E-003
27/08/2025 01:42:40.3641	2,067717001199718E+000	-2,1117069E-003
27/08/2025 01:43:04.3641	2,046856820344921E+000	-2,1499067E-003
27/08/2025 01:43:28.3641	2,024027115702629E+000	-2,1308069E-003
27/08/2025 01:43:52.3641	1,992555768275260E+000	-2,1308069E-003
27/08/2025 01:44:16.3641	1,978644253730774E+000	-2,1117069E-003
27/08/2025 01:44:40.3641	1,956948895883558E+000	-2,1499067E-003
27/08/2025 01:45:04.3641	1,937361925148956E+000	-2,1499067E-003
27/08/2025 01:45:28.3641	1,906371284079547E+000	-2,0353077E-003
27/08/2025 01:45:52.3641	1,885681927156444E+000	-2,1308069E-003
27/08/2025 01:46:16.3641	1,861258661651608E+000	-2,0926071E-003
27/08/2025 01:46:40.3641	1,837208884334563E+000	-2,1881063E-003
27/08/2025 01:47:04.3641	1,818643379878999E+000	-2,1117069E-003
27/08/2025 01:47:28.3641	1,799577234673500E+000	-2,0735073E-003
27/08/2025 01:47:52.3641	1,775275753021241E+000	-2,0162079E-003
27/08/2025 01:48:16.3641	1,755880277228357E+000	-2,1690065E-003
27/08/2025 01:48:40.3641	1,739589767265315E+000	-2,1117069E-003
27/08/2025 01:49:04.3641	1,717663409662247E+000	-2,1117069E-003
27/08/2025 01:49:28.3641	1,701482597398758E+000	-2,1308069E-003
27/08/2025 01:49:52.3641	1,674442088723179E+000	-2,2072061E-003
27/08/2025 01:50:16.3641	1,658994120645524E+000	-2,1117069E-003
27/08/2025 01:50:40.3641	1,632661423230171E+000	-2,0544075E-003
27/08/2025 01:51:04.3641	1,619668328714369E+000	-2,2263059E-003
27/08/2025 01:51:28.3641	1,604325445079802E+000	-2,0735073E-003
27/08/2025 01:51:52.3641	1,585731637787818E+000	-2,0544075E-003
27/08/2025 01:52:16.3641	1,568505094194411E+000	-2,1308069E-003
27/08/2025 01:52:40.3641	1,549057329773902E+000	-2,1117069E-003
27/08/2025 01:53:04.3641	1,530328419446944E+000	-2,0926071E-003
27/08/2025 01:53:28.3641	1,508305082750319E+000	-1,9971081E-003
27/08/2025 01:53:52.3641	1,498154089117048E+000	-2,0735073E-003
27/08/2025 01:54:16.3641	1,479180592870710E+000	-2,1881063E-003
27/08/2025 01:54:40.3641	1,466692883419991E+000	-2,0735073E-003
27/08/2025 01:55:04.3641	1,443982740283012E+000	-2,1308069E-003
27/08/2025 01:55:28.3641	1,434444672274589E+000	-2,1117069E-003
27/08/2025 01:55:52.3641	1,419513958692550E+000	-2,1690065E-003
27/08/2025 01:56:16.3641	1,406054648303982E+000	-2,0735073E-003
27/08/2025 01:56:40.3641	1,384418753361700E+000	-2,0926071E-003
27/08/2025 01:57:04.3641	1,374001099276541E+000	-2,0353077E-003
27/08/2025 01:57:28.3641	1,361811438059803E+000	-2,1881063E-003
27/08/2025 01:57:52.3641	1,340827920985221E+000	-2,1690065E-003
27/08/2025 01:58:16.3641	1,320158245515823E+000	-2,0353077E-003
27/08/2025 01:58:40.3641	1,309314097595212E+000	-2,0735073E-003
27/08/2025 01:59:04.3641	1,292733164238930E+000	-2,1690065E-003
27/08/2025 01:59:28.3641	1,282840274929999E+000	-2,1499067E-003
27/08/2025 01:59:52.3641	1,267461617493630E+000	-2,0544075E-003
27/08/2025 02:00:16.3641	1,248885532975196E+000	-2,1308069E-003
27/08/2025 02:00:40.3641	1,232281796455383E+000	-2,1308069E-003
27/08/2025 02:01:04.3641	1,226159356927869E+000	-2,0926071E-003
27/08/2025 02:01:28.3641	1,211767395162582E+000	-2,1690065E-003
27/08/2025 02:01:52.3641	1,200570062732695E+000	-2,1117069E-003
27/08/2025 02:02:16.3641	1,184500897431374E+000	-2,2263059E-003
27/08/2025 02:02:40.3641	1,172227367568016E+000	-2,1499067E-003
27/08/2025 02:03:04.3641	1,156627139139175E+000	-2,1690065E-003
27/08/2025 02:03:28.3641	1,151608350706100E+000	-1,9589085E-003
27/08/2025 02:03:52.3641	1,123258268165586E+000	-2,1117069E-003
27/08/2025 02:04:16.3641	1,110005968952179E+000	-2,1690065E-003
27/08/2025 02:04:40.3641	1,102590319252014E+000	-2,1499067E-003
27/08/2025 02:05:04.3641	1,083639538097380E+000	-2,0544075E-003
27/08/2025 02:05:28.3641	1,070927373719215E+000	-2,1499067E-003
27/08/2025 02:05:52.3641	1,058141587114334E+000	-2,2072061E-003
27/08/2025 02:06:16.3641	1,051221049189564E+000	-2,0735073E-003
27/08/2025 02:06:40.3640	1,039133273172379E+000	-1,9971081E-003
27/08/2025 02:07:04.3640	1,029417178916930E+000	-2,0926071E-003
27/08/2025 02:07:28.3640	1,010109575200079E+000	-2,0162079E-003
27/08/2025 02:07:52.3640	1,001750612854956E+000	-2,0544075E-003
27/08/2025 02:08:16.3640	9,939716857194867E-001	-2,1117069E-003
27/08/2025 02:08:40.3640	9,888145728707318E-001	-2,1117069E-003
27/08/2025 02:09:04.3640	9,813479434728620E-001	-2,2454057E-003
27/08/2025 02:09:28.3640	9,624754321694367E-001	-2,0162079E-003
27/08/2025 02:09:52.3640	9,511517402410501E-001	-2,0735073E-003
27/08/2025 02:10:16.3640	9,370145165324211E-001	-2,2072061E-003
27/08/2025 02:10:40.3640	9,328006587862960E-001	-2,0353077E-003
27/08/2025 02:11:04.3640	9,229619178771955E-001	-2,1690065E-003
27/08/2025 02:11:28.3640	9,073684085607532E-001	-2,0735073E-003
27/08/2025 02:11:52.3640	8,994820869684208E-001	-2,1499067E-003
27/08/2025 02:12:16.3640	8,835963721513735E-001	-2,1117069E-003
27/08/2025 02:12:40.3640	8,736195642352094E-001	-2,0544075E-003
27/08/2025 02:13:04.3640	8,661931338429429E-001	-2,0735073E-003
27/08/2025 02:13:28.3640	8,648718860030158E-001	-2,2263059E-003
27/08/2025 02:13:52.3640	8,546019659638402E-001	-2,0162079E-003
27/08/2025 02:14:16.3640	8,419326236128786E-001	-2,0926071E-003
27/08/2025 02:14:40.3640	8,270091723322857E-001	-2,1308069E-003
27/08/2025 02:15:04.3640	8,180983025074005E-001	-2,1308069E-003
27/08/2025 02:15:28.3640	8,111118092656134E-001	-2,1308069E-003
27/08/2025 02:15:52.3640	8,037359145402907E-001	-2,0926071E-003
27/08/2025 02:16:16.3640	7,954571315526957E-001	-2,1499067E-003
27/08/2025 02:16:40.3640	7,843690723896017E-001	-2,1117069E-003
27/08/2025 02:17:04.3640	7,744469421029088E-001	-2,0926071E-003
27/08/2025 02:17:28.3640	7,690399666786192E-001	-2,1690065E-003
27/08/2025 02:17:52.3640	7,599520813584322E-001	-2,2263059E-003
27/08/2025 02:18:16.3640	7,479499771237368E-001	-2,1308069E-003
27/08/2025 02:18:40.3640	7,405512426376335E-001	-2,0544075E-003
27/08/2025 02:19:04.3640	7,277607376813884E-001	-2,2645055E-003
27/08/2025 02:19:28.3640	7,211663745999335E-001	-2,2454057E-003
27/08/2025 02:19:52.3640	7,163601950764651E-001	-2,1881063E-003
27/08/2025 02:20:16.3640	7,018805911779396E-001	-2,2263059E-003
27/08/2025 02:20:40.3640	6,995260812520971E-001	-2,1117069E-003
27/08/2025 02:21:04.3640	6,929105298876763E-001	-2,0544075E-003
27/08/2025 02:21:28.3640	6,818231351375579E-001	-2,2836053E-003
27/08/2025 02:21:52.3640	6,744247725129124E-001	-2,0735073E-003
27/08/2025 02:22:16.3640	6,663456121683105E-001	-2,0353077E-003
27/08/2025 02:22:40.3640	6,668767162322986E-001	-2,1499067E-003
27/08/2025 02:23:04.3640	6,546975507140154E-001	-2,0926071E-003
27/08/2025 02:23:28.3640	6,450431491613378E-001	-2,1117069E-003
27/08/2025 02:23:52.3640	6,380245122551915E-001	-2,1499067E-003
27/08/2025 02:24:16.3640	6,306459416627881E-001	-2,2454057E-003
27/08/2025 02:24:40.3640	6,314423816084851E-001	-2,0926071E-003
27/08/2025 02:25:04.3640	6,294733200430871E-001	-2,1308069E-003
27/08/2025 02:25:28.3640	6,107653540730471E-001	-2,0544075E-003
27/08/2025 02:25:52.3640	6,103018718361835E-001	-2,1690065E-003
27/08/2025 02:26:16.3640	5,984629817128173E-001	-2,0353077E-003
27/08/2025 02:26:40.3640	5,925370631337152E-001	-2,1690065E-003
27/08/2025 02:27:04.3640	5,987577086329452E-001	-2,1881063E-003
27/08/2025 02:27:28.3640	5,819384951591493E-001	-2,1117069E-003
27/08/2025 02:27:51.3162	5,715045257792495E-001	-2,1117069E-003