Folder: marimo-notebooks/data/phase_2a/Sergey/3/3.3/02 polarisation (part 2)

File: SN50_C7D1_lr 0,1MFeCN6_in_1M_KCl_3306mL_symmetric_balanced_4_point_PEIS_10mV_04_CA_C16.txt
time/s	<I>/mA	Ewe/V
02/09/2025 19:30:04.1405	4,996452824458338E+002	-2,0345915E-003
02/09/2025 19:30:28.1405	8,106355182495111E+001	-2,0918909E-003
02/09/2025 19:30:52.1405	2,619234221687316E+001	-2,0536913E-003
02/09/2025 19:31:16.1405	4,384756389067149E+000	-2,1873901E-003
02/09/2025 19:31:40.1405	-2,461672956991201E+000	-2,1682901E-003
02/09/2025 19:32:04.1405	-3,152316490316394E+000	-2,2064899E-003
02/09/2025 19:32:28.1405	-2,134182425260546E+000	-2,1109907E-003
02/09/2025 19:32:52.1405	-1,000810759925843E+000	-2,2446895E-003
02/09/2025 19:33:16.1405	-8,525830789059397E-002	-2,1109907E-003
02/09/2025 19:33:40.1405	5,157658015966398E-001	-2,1682901E-003
02/09/2025 19:34:04.1405	8,573415060877796E-001	-2,1682901E-003
02/09/2025 19:34:28.1405	1,028051360559463E+000	-2,1873901E-003
02/09/2025 19:34:52.1405	1,089688518152485E+000	-2,2255897E-003
02/09/2025 19:35:16.1405	1,095816108965874E+000	-2,1682901E-003
02/09/2025 19:35:40.1405	1,065227251243591E+000	-2,0727911E-003
02/09/2025 19:36:04.1405	1,053234934997558E+000	-2,1682901E-003
02/09/2025 19:36:28.1405	1,039177252507208E+000	-1,9963919E-003
02/09/2025 19:36:52.1405	1,028784284019469E+000	-2,0727911E-003
02/09/2025 19:37:16.1405	1,020679372942446E+000	-2,1682901E-003
02/09/2025 19:37:40.1405	1,004646498537063E+000	-2,1682901E-003
02/09/2025 19:38:04.1405	1,002241047441956E+000	-2,0727911E-003
02/09/2025 19:38:28.1405	1,002649518203736E+000	-2,1109907E-003
02/09/2025 19:38:52.1405	9,923672855377177E-001	-2,0536913E-003
02/09/2025 19:39:16.1405	9,803127546072004E-001	-2,1491903E-003
02/09/2025 19:39:40.1405	9,724493470668794E-001	-2,1682901E-003
02/09/2025 19:40:04.1405	9,685737849354723E-001	-2,1682901E-003
02/09/2025 19:40:28.1405	9,627503987789154E-001	-2,1682901E-003
02/09/2025 19:40:52.1405	9,623181248426436E-001	-2,1300905E-003
02/09/2025 19:41:16.1405	9,566146273136127E-001	-2,0918909E-003
02/09/2025 19:41:40.1405	9,505769197225558E-001	-2,1682901E-003
02/09/2025 19:42:04.1405	9,439533079266518E-001	-2,2637893E-003
02/09/2025 19:42:28.1405	9,288747124791144E-001	-2,0918909E-003
02/09/2025 19:42:52.1405	9,116782205104812E-001	-2,0918909E-003
02/09/2025 19:43:16.1405	9,044239875555000E-001	-2,0918909E-003
02/09/2025 19:43:40.1405	9,017141043901429E-001	-2,2064899E-003
02/09/2025 19:44:04.1405	8,974263870954502E-001	-2,0536913E-003
02/09/2025 19:44:28.1405	8,924951326966291E-001	-2,1682901E-003
02/09/2025 19:44:52.1405	8,837129657030101E-001	-2,1682901E-003
02/09/2025 19:45:16.1405	8,764298685193053E-001	-2,1491903E-003
02/09/2025 19:45:40.1405	8,748117972612359E-001	-2,0918909E-003
02/09/2025 19:46:04.1405	8,735240570664402E-001	-2,1682901E-003
02/09/2025 19:46:28.1405	8,509920571446408E-001	-2,2446895E-003
02/09/2025 19:46:52.1405	8,474799741148935E-001	-2,1873901E-003
02/09/2025 19:47:16.1405	8,365403681993477E-001	-2,1491903E-003
02/09/2025 19:47:40.1405	8,351895897507662E-001	-2,1300905E-003
02/09/2025 19:48:04.1405	8,273971449971178E-001	-2,1109907E-003
02/09/2025 19:48:28.1405	8,293882854461678E-001	-2,1300905E-003
02/09/2025 19:48:52.1405	8,283801828861215E-001	-2,1300905E-003
02/09/2025 19:49:16.1405	8,191609016537651E-001	-2,2255897E-003
02/09/2025 19:49:40.1405	8,026172641038887E-001	-2,0727911E-003
02/09/2025 19:50:04.1405	7,973687010645865E-001	-2,0536913E-003
02/09/2025 19:50:28.1405	7,874275599479663E-001	-2,1873901E-003
02/09/2025 19:50:52.1405	7,873654494404789E-001	-2,1682901E-003
02/09/2025 19:51:16.1405	7,761174635529500E-001	-2,1873901E-003
02/09/2025 19:51:40.1405	7,769661135911932E-001	-2,0536913E-003
02/09/2025 19:52:04.1405	7,770411513209332E-001	-2,1873901E-003
02/09/2025 19:52:28.1405	7,638679709434508E-001	-2,1300905E-003
02/09/2025 19:52:52.1405	7,527407927751542E-001	-2,1109907E-003
02/09/2025 19:53:16.1405	7,449187406539917E-001	-2,1491903E-003
02/09/2025 19:53:40.1405	7,511053457140928E-001	-2,1682901E-003
02/09/2025 19:54:04.1405	7,376558387398706E-001	-2,0918909E-003
02/09/2025 19:54:28.1405	7,259873211622234E-001	-2,1682901E-003
02/09/2025 19:54:52.1405	7,251029683589931E-001	-2,1300905E-003
02/09/2025 19:55:16.1405	7,159060148596765E-001	-2,1491903E-003
02/09/2025 19:55:40.1405	7,125897523999205E-001	-2,1109907E-003
02/09/2025 19:56:04.1405	7,022418508529658E-001	-2,0727911E-003
02/09/2025 19:56:28.1405	6,905099936485275E-001	-2,2064899E-003
02/09/2025 19:56:52.1405	6,963024031043048E-001	-2,1491903E-003
02/09/2025 19:57:16.1405	6,805769615173336E-001	-2,1682901E-003
02/09/2025 19:57:40.1405	6,709267631173130E-001	-2,1109907E-003
02/09/2025 19:58:04.1405	6,721432001709928E-001	-2,1300905E-003
02/09/2025 19:58:28.1405	6,763228916049000E-001	-2,2255897E-003
02/09/2025 19:58:52.1405	6,600775364518157E-001	-2,0918909E-003
02/09/2025 19:59:16.1405	6,606014754772183E-001	-2,0918909E-003
02/09/2025 19:59:40.1405	6,582685865044589E-001	-2,0154917E-003
02/09/2025 20:00:04.1405	6,497009168863297E-001	-2,0345915E-003
02/09/2025 20:00:28.1405	6,432215591073034E-001	-2,0727911E-003
02/09/2025 20:00:52.1405	6,346615353345868E-001	-2,1682901E-003
02/09/2025 20:01:16.1405	6,369492944002153E-001	-2,1873901E-003
02/09/2025 20:01:40.1405	6,210474523305880E-001	-1,9772921E-003
02/09/2025 20:02:04.1405	6,145101903319352E-001	-1,9963919E-003
02/09/2025 20:02:28.1405	6,100844303250295E-001	-2,1300905E-003
02/09/2025 20:02:52.1405	6,063403512835501E-001	-2,0918909E-003
02/09/2025 20:03:16.1405	6,011895075440403E-001	-2,1109907E-003
02/09/2025 20:03:40.1405	5,970153311014172E-001	-2,0918909E-003
02/09/2025 20:04:04.1405	5,867685834884639E-001	-2,0918909E-003
02/09/2025 20:04:28.1405	5,858547328472117E-001	-2,2064899E-003
02/09/2025 20:04:52.1405	5,775045648455617E-001	-2,1682901E-003
02/09/2025 20:05:16.1405	5,828381284356112E-001	-2,1491903E-003
02/09/2025 20:05:40.1405	5,781394870400427E-001	-2,2064899E-003
02/09/2025 20:06:04.1405	5,654609692454340E-001	-2,2255897E-003
02/09/2025 20:06:28.1405	5,642967788338662E-001	-2,2064899E-003
02/09/2025 20:06:52.1405	5,632333989620193E-001	-2,0727911E-003
02/09/2025 20:07:16.1405	5,590460066914549E-001	-2,1300905E-003
02/09/2025 20:07:40.1405	5,555511508226392E-001	-2,1300905E-003
02/09/2025 20:08:04.1405	5,463164061665520E-001	-2,1300905E-003
02/09/2025 20:08:28.1405	5,388646157145498E-001	-2,1873901E-003
02/09/2025 20:08:52.1405	5,295808357059952E-001	-2,1300905E-003
02/09/2025 20:09:16.1405	5,296383368432522E-001	-2,1300905E-003
02/09/2025 20:09:40.1405	5,315523808121676E-001	-2,0727911E-003
02/09/2025 20:10:04.1405	5,265888697624197E-001	-2,1491903E-003
02/09/2025 20:10:28.1405	5,200095685184003E-001	-2,0918909E-003
02/09/2025 20:10:52.1404	5,116910328090191E-001	-2,2064899E-003
02/09/2025 20:11:16.1404	5,161750865221024E-001	-2,0918909E-003
02/09/2025 20:11:40.1404	5,092882315218450E-001	-2,1873901E-003
02/09/2025 20:12:04.1404	5,032673293471337E-001	-2,1109907E-003
02/09/2025 20:12:28.1404	5,011248095393173E-001	-2,2828891E-003
02/09/2025 20:12:52.1404	5,006435413718222E-001	-2,0345915E-003
02/09/2025 20:13:16.1404	4,985573601007460E-001	-2,1682901E-003
02/09/2025 20:13:40.1404	4,956522630214688E-001	-2,0918909E-003
02/09/2025 20:14:04.1404	4,854376556694509E-001	-2,1300905E-003
02/09/2025 20:14:28.1404	4,764759684860707E-001	-2,1109907E-003
02/09/2025 20:14:52.1404	4,872917863607404E-001	-2,0918909E-003
02/09/2025 20:15:16.1404	4,745877845406525E-001	-2,0536913E-003
02/09/2025 20:15:40.1404	4,812647661745548E-001	-2,1109907E-003
02/09/2025 20:16:04.1404	4,638922361671920E-001	-2,0536913E-003
02/09/2025 20:16:28.1404	4,607609392404557E-001	-2,2064899E-003
02/09/2025 20:16:52.1404	4,669997412145137E-001	-2,0536913E-003
02/09/2025 20:17:16.1404	4,505213250577444E-001	-2,1873901E-003
02/09/2025 20:17:40.1404	4,477750352680683E-001	-2,2828891E-003
02/09/2025 20:18:04.1404	4,526330989420408E-001	-2,1491903E-003
02/09/2025 20:18:28.1404	4,414043017804623E-001	-2,1300905E-003
02/09/2025 20:18:52.1404	4,343084534585469E-001	-2,1491903E-003
02/09/2025 20:19:16.1404	4,386918406009670E-001	-2,0154917E-003
02/09/2025 20:19:40.1404	4,353489484727380E-001	-2,1109907E-003
02/09/2025 20:20:04.1404	4,355099442720412E-001	-2,0727911E-003
02/09/2025 20:20:28.1404	4,261141621649251E-001	-2,1873901E-003
02/09/2025 20:20:52.1404	4,262348794341086E-001	-2,2064899E-003
02/09/2025 20:21:16.1404	4,209875282466404E-001	-2,1682901E-003
02/09/2025 20:21:40.1404	4,219171489119518E-001	-2,1109907E-003
02/09/2025 20:22:04.1404	4,114107224881647E-001	-2,0345915E-003
02/09/2025 20:22:28.1404	4,073255570769305E-001	-2,1300905E-003
02/09/2025 20:22:52.1404	4,032683650076390E-001	-2,1109907E-003
02/09/2025 20:23:16.1404	3,941988635897636E-001	-2,1682901E-003
02/09/2025 20:23:40.1404	3,991401400268080E-001	-2,0918909E-003
02/09/2025 20:24:04.1404	3,919876749992368E-001	-2,1109907E-003
02/09/2025 20:24:28.1404	3,952603553831571E-001	-2,1682901E-003
02/09/2025 20:24:52.1404	3,836397812128067E-001	-2,1682901E-003
02/09/2025 20:25:16.1404	3,884575959503651E-001	-2,1873901E-003
02/09/2025 20:25:40.1404	3,789783595442771E-001	-2,2064899E-003
02/09/2025 20:26:04.1404	3,797862612724296E-001	-2,1300905E-003
02/09/2025 20:26:28.1404	3,828781844854355E-001	-2,1873901E-003
02/09/2025 20:26:52.1404	3,766964704513549E-001	-2,1109907E-003
02/09/2025 20:27:16.1404	3,631821348249908E-001	-2,1873901E-003
02/09/2025 20:27:40.1404	3,705357325375079E-001	-2,1109907E-003
02/09/2025 20:28:04.1404	3,644328048765657E-001	-2,0918909E-003
02/09/2025 20:28:28.1404	3,562934408187866E-001	-2,2637893E-003
02/09/2025 20:28:52.1404	3,646682430624963E-001	-2,1682901E-003
02/09/2025 20:29:16.1404	3,532429828286165E-001	-2,0154917E-003
02/09/2025 20:29:40.1404	3,564830898761748E-001	-2,0918909E-003
02/09/2025 20:30:03.0926	3,553931192361715E-001	-2,1491903E-003