Folder: marimo-notebooks/data/phase_2a/Sergey/2/20.7/02 polarisation (part 2)

File: SN50_C6aD1E1_hr 0,1MFeCN6_in_1M_KCl_3306mL_symmetric_balanced_4_point_PEIS_10mHz_200kHz_10mV_01_04_CA_C16.txt
time/s	<I>/mA	Ewe/V
31/08/2025 11:47:18.9561	1,435158946355032E+002	-1,9971081E-003
31/08/2025 11:47:42.9561	8,917977024650554E+000	-2,0926071E-003
31/08/2025 11:48:06.9561	9,587850577926636E+000	-2,1499067E-003
31/08/2025 11:48:30.9561	9,420034059905987E+000	-2,1117069E-003
31/08/2025 11:48:54.9561	9,276931576156613E+000	-2,0353077E-003
31/08/2025 11:49:18.9561	9,142483055686938E+000	-2,1499067E-003
31/08/2025 11:49:42.9561	8,986165309524523E+000	-2,0735073E-003
31/08/2025 11:50:06.9561	8,840719027328490E+000	-2,1499067E-003
31/08/2025 11:50:30.9561	8,701962623214712E+000	-2,2072061E-003
31/08/2025 11:50:54.9561	8,581639426422115E+000	-2,0735073E-003
31/08/2025 11:51:18.9561	8,439543717193605E+000	-2,0926071E-003
31/08/2025 11:51:42.9561	8,311015051460267E+000	-2,0544075E-003
31/08/2025 11:52:06.9561	8,192601085853575E+000	-2,1308069E-003
31/08/2025 11:52:30.9561	8,061607203483575E+000	-2,0544075E-003
31/08/2025 11:52:54.9561	7,936068450546266E+000	-2,1117069E-003
31/08/2025 11:53:18.9561	7,820626198196408E+000	-2,1308069E-003
31/08/2025 11:53:42.9561	7,688787934970856E+000	-2,1881063E-003
31/08/2025 11:54:06.9561	7,577871191215507E+000	-2,1117069E-003
31/08/2025 11:54:30.9561	7,461979156208031E+000	-2,0544075E-003
31/08/2025 11:54:54.9561	7,350525418472287E+000	-2,1117069E-003
31/08/2025 11:55:18.9561	7,243974316692345E+000	-2,0926071E-003
31/08/2025 11:55:42.9561	7,133416848373400E+000	-2,1499067E-003
31/08/2025 11:56:06.9561	7,024899170875557E+000	-2,1690065E-003
31/08/2025 11:56:30.9561	6,915742310142491E+000	-2,0735073E-003
31/08/2025 11:56:54.9561	6,813391332912431E+000	-2,0735073E-003
31/08/2025 11:57:18.9561	6,714971371555322E+000	-2,0544075E-003
31/08/2025 11:57:42.9561	6,615604496765144E+000	-2,1499067E-003
31/08/2025 11:58:06.9561	6,519157467269896E+000	-2,0735073E-003
31/08/2025 11:58:30.9561	6,421666711902610E+000	-2,1117069E-003
31/08/2025 11:58:54.9561	6,336688144683833E+000	-2,0735073E-003
31/08/2025 11:59:18.9561	6,242221849632262E+000	-2,0544075E-003
31/08/2025 11:59:42.9561	6,139401880073546E+000	-2,0735073E-003
31/08/2025 12:00:06.9561	6,056520089721673E+000	-2,1690065E-003
31/08/2025 12:00:30.9561	5,963549804687489E+000	-1,9971081E-003
31/08/2025 12:00:54.9561	5,873261590385425E+000	-2,1117069E-003
31/08/2025 12:01:18.9561	5,790754251956940E+000	-2,0926071E-003
31/08/2025 12:01:42.9561	5,701987805366514E+000	-2,0735073E-003
31/08/2025 12:02:06.9561	5,617601493835444E+000	-2,0926071E-003
31/08/2025 12:02:30.9561	5,532056829643247E+000	-2,1881063E-003
31/08/2025 12:02:54.9561	5,455053676605218E+000	-2,2263059E-003
31/08/2025 12:03:18.9561	5,366157882308954E+000	-2,0926071E-003
31/08/2025 12:03:42.9561	5,290255974483490E+000	-2,2072061E-003
31/08/2025 12:04:06.9561	5,205122753524776E+000	-2,1308069E-003
31/08/2025 12:04:30.9561	5,141069567108147E+000	-2,1308069E-003
31/08/2025 12:04:54.9561	5,059828581047057E+000	-2,0926071E-003
31/08/2025 12:05:18.9561	4,983618117332455E+000	-1,9971081E-003
31/08/2025 12:05:42.9561	4,911358050441734E+000	-2,1881063E-003
31/08/2025 12:06:06.9561	4,837007923030853E+000	-2,0544075E-003
31/08/2025 12:06:30.9561	4,766261454868314E+000	-2,0544075E-003
31/08/2025 12:06:54.9561	4,691725220775602E+000	-2,0162079E-003
31/08/2025 12:07:18.9561	4,609309193229675E+000	-2,1308069E-003
31/08/2025 12:07:42.9561	4,539210829257961E+000	-2,1117069E-003
31/08/2025 12:08:06.9561	4,418626266860961E+000	-2,1499067E-003
31/08/2025 12:08:30.9561	4,346257808876032E+000	-2,1308069E-003
31/08/2025 12:08:54.9561	4,260781177711486E+000	-2,2263059E-003
31/08/2025 12:09:18.9561	4,206138696193690E+000	-2,1499067E-003
31/08/2025 12:09:42.9561	4,144068135452272E+000	-2,1308069E-003
31/08/2025 12:10:06.9561	4,065439823436733E+000	-2,1499067E-003
31/08/2025 12:10:30.9561	4,007755819368356E+000	-2,0926071E-003
31/08/2025 12:10:54.9561	3,936062446880335E+000	-2,2263059E-003
31/08/2025 12:11:18.9561	3,888517000770563E+000	-2,1117069E-003
31/08/2025 12:11:42.9561	3,826178250980377E+000	-2,0926071E-003
31/08/2025 12:12:06.9561	3,763479887008664E+000	-2,0735073E-003
31/08/2025 12:12:30.9561	3,701166740798939E+000	-2,0353077E-003
31/08/2025 12:12:54.9561	3,640787963867190E+000	-2,1499067E-003
31/08/2025 12:13:18.9561	3,579622589302062E+000	-2,0544075E-003
31/08/2025 12:13:42.9561	3,522517998981471E+000	-2,0926071E-003
31/08/2025 12:14:06.9561	3,465359904479980E+000	-2,0926071E-003
31/08/2025 12:14:30.9561	3,411292193841931E+000	-2,1690065E-003
31/08/2025 12:14:54.9561	3,355193208980552E+000	-2,1117069E-003
31/08/2025 12:15:18.9561	3,295538327074048E+000	-2,1499067E-003
31/08/2025 12:15:42.9561	3,241646821975706E+000	-2,0544075E-003
31/08/2025 12:16:06.9561	3,185773820877076E+000	-2,0735073E-003
31/08/2025 12:16:30.9561	3,140860989713669E+000	-2,1881063E-003
31/08/2025 12:16:54.9561	3,088826337051387E+000	-2,0544075E-003
31/08/2025 12:17:18.9561	3,043516807460783E+000	-2,1881063E-003
31/08/2025 12:17:42.9561	2,996438430881497E+000	-2,2072061E-003
31/08/2025 12:18:06.9561	2,952043218231196E+000	-2,1690065E-003
31/08/2025 12:18:30.9561	2,905806264495848E+000	-2,0926071E-003
31/08/2025 12:18:54.9561	2,859459949302668E+000	-2,0926071E-003
31/08/2025 12:19:18.9561	2,819801164436335E+000	-2,0926071E-003
31/08/2025 12:19:42.9561	2,777548878908149E+000	-2,2072061E-003
31/08/2025 12:20:06.9561	2,732152676153182E+000	-2,1690065E-003
31/08/2025 12:20:30.9561	2,688806071615218E+000	-2,1117069E-003
31/08/2025 12:20:54.9561	2,664965070104600E+000	-2,1308069E-003
31/08/2025 12:21:18.9561	2,616272070026390E+000	-2,0926071E-003
31/08/2025 12:21:42.9561	2,608659469509124E+000	-2,1308069E-003
31/08/2025 12:22:06.9561	2,580315056991576E+000	-2,1499067E-003
31/08/2025 12:22:30.9561	2,553236552238459E+000	-2,1690065E-003
31/08/2025 12:22:54.9561	2,520600375556942E+000	-2,1499067E-003
31/08/2025 12:23:18.9561	2,484387798690797E+000	-2,0162079E-003
31/08/2025 12:23:42.9561	2,447904055118560E+000	-2,0735073E-003
31/08/2025 12:24:06.9561	2,410073012256623E+000	-2,0926071E-003
31/08/2025 12:24:30.9561	2,389040658569336E+000	-2,0926071E-003
31/08/2025 12:24:54.9561	2,347135248184205E+000	-2,0735073E-003
31/08/2025 12:25:18.9561	2,284742100477219E+000	-2,1499067E-003
31/08/2025 12:25:42.9560	2,263770121383665E+000	-2,2645055E-003
31/08/2025 12:26:06.9560	2,240557207345962E+000	-1,9971081E-003
31/08/2025 12:26:30.9560	2,212773959541316E+000	-2,1499067E-003
31/08/2025 12:26:54.9560	2,154028362226487E+000	-2,2454057E-003
31/08/2025 12:27:18.9560	2,113415049171444E+000	-2,0926071E-003
31/08/2025 12:27:42.9560	2,057119513463974E+000	-2,1881063E-003
31/08/2025 12:28:06.9560	2,023380663728716E+000	-2,1117069E-003
31/08/2025 12:28:30.9560	1,999709903192517E+000	-2,1117069E-003
31/08/2025 12:28:54.9560	1,955098192930222E+000	-2,1499067E-003
31/08/2025 12:29:18.9560	1,927229129791257E+000	-2,1881063E-003
31/08/2025 12:29:42.9560	1,898754922461510E+000	-2,0735073E-003
31/08/2025 12:30:06.9560	1,859244540262218E+000	-1,9971081E-003
31/08/2025 12:30:30.9560	1,825677045297622E+000	-2,0735073E-003
31/08/2025 12:30:54.9560	1,805034814286230E+000	-2,2263059E-003
31/08/2025 12:31:18.9560	1,772728632426258E+000	-2,1499067E-003
31/08/2025 12:31:42.9560	1,735898457384103E+000	-2,1499067E-003
31/08/2025 12:32:06.9560	1,708361314201355E+000	-2,1117069E-003
31/08/2025 12:32:30.9560	1,680033622241019E+000	-2,1690065E-003
31/08/2025 12:32:54.9560	1,664887387895583E+000	-2,0162079E-003
31/08/2025 12:33:18.9560	1,628989722871779E+000	-2,0353077E-003
31/08/2025 12:33:42.9560	1,607877941656113E+000	-2,1881063E-003
31/08/2025 12:34:06.9560	1,595610453367232E+000	-2,1881063E-003
31/08/2025 12:34:30.9560	1,571360737395285E+000	-2,1308069E-003
31/08/2025 12:34:54.9560	1,546318256092071E+000	-2,1499067E-003
31/08/2025 12:35:18.9560	1,512786058807372E+000	-2,1117069E-003
31/08/2025 12:35:42.9560	1,498248329019546E+000	-2,1881063E-003
31/08/2025 12:36:06.9560	1,474892925524710E+000	-2,0735073E-003
31/08/2025 12:36:30.9560	1,451337457013130E+000	-2,1690065E-003
31/08/2025 12:36:54.9560	1,422649007344246E+000	-2,1117069E-003
31/08/2025 12:37:18.9560	1,401935742950435E+000	-2,1499067E-003
31/08/2025 12:37:42.9560	1,393548375725746E+000	-2,1117069E-003
31/08/2025 12:38:06.9560	1,366208779358864E+000	-2,0926071E-003
31/08/2025 12:38:30.9560	1,344872946190834E+000	-2,0926071E-003
31/08/2025 12:38:54.9560	1,314687487077713E+000	-2,2263059E-003
31/08/2025 12:39:18.9560	1,306698292136190E+000	-2,1499067E-003
31/08/2025 12:39:42.9560	1,281685736918448E+000	-2,1308069E-003
31/08/2025 12:40:06.9560	1,264837174725530E+000	-2,0926071E-003
31/08/2025 12:40:30.9560	1,242101905679703E+000	-2,1690065E-003
31/08/2025 12:40:54.9560	1,225049342799185E+000	-2,1308069E-003
31/08/2025 12:41:18.9560	1,211181270885468E+000	-1,9971081E-003
31/08/2025 12:41:42.9560	1,189396215486525E+000	-2,1117069E-003
31/08/2025 12:42:06.9560	1,168523504352567E+000	-2,2263059E-003
31/08/2025 12:42:30.9560	1,152191729545594E+000	-2,1499067E-003
31/08/2025 12:42:54.9560	1,136078593301773E+000	-2,0735073E-003
31/08/2025 12:43:18.9560	1,127833381342887E+000	-2,2072061E-003
31/08/2025 12:43:42.9560	1,103530648541450E+000	-2,0926071E-003
31/08/2025 12:44:06.9560	1,089917515611649E+000	-2,0926071E-003
31/08/2025 12:44:30.9560	1,071684367537498E+000	-2,0735073E-003
31/08/2025 12:44:54.9560	1,061309341979026E+000	-2,1117069E-003
31/08/2025 12:45:18.9560	1,054535959315301E+000	-2,3027051E-003
31/08/2025 12:45:42.9560	1,033147817277908E+000	-2,1690065E-003
31/08/2025 12:46:06.9560	1,016865250444412E+000	-2,0735073E-003
31/08/2025 12:46:30.9560	1,004902569890021E+000	-2,0926071E-003
31/08/2025 12:46:54.9560	9,868884261488908E-001	-1,9589085E-003
31/08/2025 12:47:17.9082	9,717191522723860E-001	-2,1308069E-003