Folder: marimo-notebooks/data/phase_2a/Sergey/2/3.3/01 eis

Note: README.md
# International Flow Battery Reproducibility Study

## FSU Data Dashboard

This repository contains the data obtained by participants of the Friedrich Schiller University Jena from experiments performed during the international flow battery reproducibility study led by MIT and QUB. The data is evaluated with Python within an interactive Marimo notebook. 

## ðŸš€ Contributing data

Datasets can be contributed via Pull Request. The raw measurement files (BioLogic `*.mpr`) must follow a fixed directory layout so the automated precompute pipeline can process them.

### Directory structure

Place your data under `apps/public/data/` using the following hierarchy:

```
apps/public/data/
  {study_phase}/                 # e.g. phase_2a, phase_2b
    {participant}/               # your participant ID, e.g. P001
      {repetition}/              # measurement repetition: 1, 2, 3, â€¦
        {flow_rate}/             # electrolyte flow rate in mL/min: 3.3, 8.3, 20.7, 25, â€¦
          {technique}/           # see naming convention below
            *.mpr                # BioLogic raw data files
    Temperature/                 # (optional) temperature log per study phase
      DL-200T_temperature.csv    # CSV with columns: datetime, temperature_C
```

### Technique naming convention

Technique directories must use the following numbered prefixes so the precompute script can identify them:

| Directory name          | Description                  |
|-------------------------|------------------------------|
| `00 break-in`           | Break-in / conditioning      |
| `01 eis`                | Electrochemical impedance    |
| `02 polarisation`       | Polarisation curves          |
| `03 charge-discharge`   | Chargeâ€“discharge cycling     |
| `04 post-eis`           | Post-experiment EIS          |
| `05 post-polarisation`  | Post-experiment polarisation |

### Step-by-step

1. **Fork** this repository on GitHub.
2. Clone your fork and create a new branch:
   ```bash
   git checkout -b data/{your-name}
   ```
3. Add your `*.mpr` files into the correct directory structure under `apps/public/data/`.
4. Commit and push:
   ```bash
   git add apps/public/data/
   git commit -m "data: add {your-name} measurements for {phase}"
   git push origin data/{your-name}
   ```
5. Open a **Pull Request** against `main`.

Once the PR is merged, a GitHub Action will automatically:
1. Run the precompute script to extract the raw data into Parquet files.
2. Rebuild and deploy the interactive dashboard to GitHub Pages.

> **Note:** Directories containing `fail` in their name (e.g. `3-failed`) are automatically excluded from processing.

## ðŸ§ª Local Development

### Prerequisites

- **Python â‰¥ 3.12**
- **[uv](https://docs.astral.sh/uv/getting-started/installation/)** â€“ a fast Python package manager

### Setup

Clone the repository and navigate into it:

```bash
git clone https://github.com/fsu-schubert-battery/marimo-notebooks.git
cd marimo-notebooks
```

No manual virtual 

File: SN50_C6aD1E1_lr 0,1MFeCN6_in_1M_KCl_3306mL_symmetric_balanced_4_point_PEIS_10mHz_200kHz_10mV_C16.txt
time/s	freq/Hz	Re(Z)/Ohm	-Im(Z)/Ohm
30/08/2025 14:54:25.5025	1,9999814E+005	3,1364742E-001	-3,3982445E-002
30/08/2025 14:54:26.6655	1,0022640E+005	3,3930811E-001	-1,1470364E-002
30/08/2025 14:54:31.3285	5,0224539E+004	3,4263760E-001	-4,8390818E-003
30/08/2025 14:54:33.0525	2,5172580E+004	3,4377813E-001	-1,1424314E-003
30/08/2025 14:54:34.3545	1,2618766E+004	3,4470123E-001	6,7198189E-004
30/08/2025 14:54:35.6753	6,3238188E+003	3,4561256E-001	1,8008885E-003
30/08/2025 14:54:37.3010	3,1669595E+003	3,4676957E-001	2,6459310E-003
30/08/2025 14:54:38.7009	1,5884750E+003	3,4806365E-001	3,2420834E-003
30/08/2025 14:54:40.1027	7,9525409E+002	3,4952641E-001	3,9755171E-003
30/08/2025 14:54:41.5024	3,9859698E+002	3,5154471E-001	4,6347994E-003
30/08/2025 14:54:42.9000	1,9980818E+002	3,5367021E-001	5,3599300E-003
30/08/2025 14:54:44.3014	1,0016024E+002	3,5609865E-001	6,2301490E-003
30/08/2025 14:54:45.7169	5,0208866E+001	3,5870710E-001	7,2189183E-003
30/08/2025 14:54:47.0957	2,5136747E+001	3,6191478E-001	8,3355205E-003
30/08/2025 14:54:48.5539	1,2600809E+001	3,6578390E-001	9,6731642E-003
30/08/2025 14:54:49.9742	6,3105812E+000	3,7016913E-001	1,1587454E-002
30/08/2025 14:54:51.7247	3,1655185E+000	3,7512222E-001	1,3838315E-002
30/08/2025 14:54:55.7431	1,5846856E+000	3,8062060E-001	1,7349424E-002
30/08/2025 14:55:02.2701	7,9443753E-001	3,8657594E-001	2,2591557E-002
30/08/2025 14:55:15.1726	3,9867833E-001	3,9604196E-001	3,3648688E-002
30/08/2025 14:55:40.8077	1,9980818E-001	4,0840235E-001	4,7388520E-002
30/08/2025 14:56:31.8479	1,0013975E-001	4,2784509E-001	6,9732964E-002
30/08/2025 14:58:13.6211	5,0154075E-002	4,5953178E-001	1,0183374E-001
30/08/2025 15:01:36.6367	2,5144994E-002	5,0647211E-001	1,4052035E-001
30/08/2025 15:08:21.7251	1,2576789E-002	5,7131559E-001	1,9228242E-001
30/08/2025 15:11:53.0145	1,5885727E+005	3,3087140E-001	-1,4548497E-002
30/08/2025 15:11:55.4385	7,9609563E+004	3,4333038E-001	-6,9771623E-003
30/08/2025 15:11:59.6825	3,9897566E+004	3,4550360E-001	-2,7285311E-003
30/08/2025 15:12:01.1255	1,9995176E+004	3,4639060E-001	-2,3468868E-004
30/08/2025 15:12:02.4285	1,0020785E+004	3,4733030E-001	1,2315244E-003
30/08/2025 15:12:04.0067	5,0216069E+003	3,4839430E-001	2,0512813E-003
30/08/2025 15:12:05.4077	2,5158047E+003	3,4977484E-001	2,9303881E-003
30/08/2025 15:12:06.8087	1,2604036E+003	3,5092711E-001	3,3771354E-003
30/08/2025 15:12:08.2092	6,3181964E+002	3,5270774E-001	4,2066011E-003
30/08/2025 15:12:09.6087	3,1672299E+002	3,5444045E-001	4,8920838E-003
30/08/2025 15:12:11.0105	1,5862943E+002	3,5686991E-001	5,6979065E-003
30/08/2025 15:12:12.4130	7,9516548E+001	3,5937440E-001	6,5640211E-003
30/08/2025 15:12:13.8245	3,9859695E+001	3,6240217E-001	7,5250589E-003
30/08/2025 15:12:15.2040	1,9980818E+001	3,6577109E-001	8,7956758E-003
30/08/2025 15:12:16.6605	1,0016025E+001	3,6967495E-001	1,0377226E-002
30/08/2025 15:12:18.0842	5,0144420E+000	3,7431660E-001	1,2307906E-002
30/08/2025 15:12:20.2437	2,5136747E+000	3,7922448E-001	1,4963911E-002
30/08/2025 15:12:25.0920	1,2596742E+000	3,8567469E-001	1,9345155E-002
30/08/2025 15:12:33.2779	6,3126212E-001	3,9202815E-001	2,5438886E-002
30/08/2025 15:12:49.4962	3,1619310E-001	4,0167105E-001	3,6420442E-002
30/08/2025 15:13:21.7427	1,5846856E-001	4,1632965E-001	5,5018250E-002
30/08/2025 15:14:25.9826	7,9421178E-002	4,4046447E-001	7,9571575E-002
30/08/2025 15:16:34.0961	3,9804459E-002	4,7499469E-001	1,1271220E-001
30/08/2025 15:20:49.6656	1,9949391E-002	5,2735335E-001	1,5824763E-001
30/08/2025 15:29:19.3847	1,0009170E-002	6,0386562E-001	2,1368425E-001
30/08/2025 15:29:21.0896	1,2618765E+005	3,3805260E-001	-1,0702593E-002
30/08/2025 15:29:24.7716	6,3233004E+004	3,4568858E-001	-5,2747861E-003
30/08/2025 15:29:27.8936	3,1686090E+004	3,4723750E-001	-1,7563597E-003
30/08/2025 15:29:29.1976	1,5884798E+004	3,4806317E-001	4,3921504E-004
30/08/2025 15:29:30.5578	7,9597607E+003	3,4908351E-001	1,4156951E-003
30/08/2025 15:29:32.1130	3,9861731E+003	3,5019964E-001	2,4842026E-003
30/08/2025 15:29:33.5151	1,9980818E+003	3,5159791E-001	3,0061998E-003
30/08/2025 15:29:34.9135	1,0016024E+003	3,5295811E-001	3,7423065E-003
30/08/2025 15:29:36.3140	5,0208865E+002	3,5464668E-001	4,2599170E-003
30/08/2025 15:29:37.7115	2,5169135E+002	3,5673371E-001	5,0992114E-003
30/08/2025 15:29:39.1143	1,2600809E+002	3,5899416E-001	5,8045946E-003
30/08/2025 15:29:40.5317	6,3160763E+001	3,6178997E-001	7,0290253E-003
30/08/2025 15:29:41.9123	3,1672298E+001	3,6488539E-001	7,8968750E-003
30/08/2025 15:29:43.2900	1,5857577E+001	3,6862999E-001	9,2844553E-003
30/08/2025 15:29:44.8773	7,9557004E+000	3,7281701E-001	1,1071025E-002
30/08/2025 15:29:46.2987	3,9859698E+000	3,7737408E-001	1,2988419E-002
30/08/2025 15:29:48.9778	1,9970603E+000	3,8316724E-001	1,6095972E-002
30/08/2025 15:29:54.8713	1,0000639E+000	3,8901690E-001	2,0483771E-002
30/08/2025 15:30:05.1471	5,0118679E-001	3,9733398E-001	2,9139735E-002
30/08/2025 15:30:25.5368	2,5117347E-001	4,0743542E-001	4,1846417E-002
30/08/2025 15:31:06.1067	1,2590654E-001	4,2429575E-001	6,2110070E-002
30/08/2025 15:32:26.9614	6,3101739E-002	4,5238918E-001	9,0245187E-002
30/08/2025 15:35:08.2952	3,1592205E-002	4,9239090E-001	1,2608834E-001
30/08/2025 15:40:29.8526	1,5860692E-002	5,5011618E-001	1,7528753E-001
30/08/2025 15:46:47.8596	1,9999814E+005	3,2523063E-001	-3,5960797E-002
30/08/2025 15:46:49.1616	1,0022640E+005	3,4387103E-001	-1,2766410E-002
30/08/2025 15:46:50.8846	5,0224539E+004	3,4734082E-001	-5,1840725E-003
30/08/2025 15:46:52.4676	2,5172580E+004	3,4860319E-001	-1,4987426E-003
30/08/2025 15:46:53.7696	1,2618766E+004	3,4933788E-001	6,7272317E-004
30/08/2025 15:46:55.0894	6,3238188E+003	3,5050690E-001	1,8881914E-003
30/08/2025 15:46:56.7171	3,1669595E+003	3,5156751E-001	2,7713939E-003
30/08/2025 15:46:58.1181	1,5884750E+003	3,5289937E-001	3,2776378E-003
30/08/2025 15:46:59.5188	7,9525409E+002	3,5465440E-001	3,9876802E-003
30/08/2025 15:47:00.9186	3,9859698E+002	3,5642192E-001	4,5620808E-003
30/08/2025 15:47:02.3171	1,9980818E+002	3,5847396E-001	5,4540178E-003
30/08/2025 15:47:03.7186	1,0016024E+002	3,6100772E-001	6,2192301E-003
30/08/2025 15:47:05.1361	5,0208866E+001	3,6395049E-001	7,2254804E-003
30/08/2025 15:47:06.5148	2,5136747E+001	3,6720783E-001	8,5427724E-003
30/08/2025 15:47:07.9740	1,2600809E+001	3,7086350E-001	9,7682793E-003
30/08/2025 15:47:09.3943	6,3105812E+000	3,7521636E-001	1,1516103E-002
30/08/2025 15:47:11.1449	3,1655185E+000	3,7998301E-001	1,3932572E-002
30/08/2025 15:47:15.1633	1,5846856E+000	3,8585812E-001	1,7570788E-002
30/08/2025 15:47:21.6933	7,9443753E-001	3,9285034E-001	2,2910705E-002
30/08/2025 15:47:34.5955	3,9867833E-001	4,0152144E-001	3,3621266E-002
30/08/2025 15:48:00.2296	1,9980818E-001	4,1319630E-001	4,7650389E-002
30/08/2025 15:48:51.2699	1,0013975E-001	4,3306097E-001	7,0610426E-002
30/08/2025 15:50:33.0439	5,0154075E-002	4,6541592E-001	1,0153052E-001
30/08/2025 15:53:56.0585	2,5144994E-002	5,1027513E-001	1,4069512E-001