Folder: marimo-notebooks/data/phase_2a/Sergey/2/3.3/02 polarisation (part 2)

File: SN50_C6aD1E1_lr 0,1MFeCN6_in_1M_KCl_3306mL_symmetric_balanced_4_point_PEIS_10mHz_200kHz_10mV_04_CA_C16.txt
time/s	<I>/mA	Ewe/V
30/08/2025 17:24:19.7033	4,363171822499107E+002	-2,0544075E-003
30/08/2025 17:24:43.7033	8,885818418121335E+001	-2,1308069E-003
30/08/2025 17:25:07.7033	4,162792183609008E+001	-2,1499067E-003
30/08/2025 17:25:31.7033	2,227603317794799E+001	-2,0735073E-003
30/08/2025 17:25:55.7033	1,422712163639068E+001	-2,1690065E-003
30/08/2025 17:26:19.7033	1,023370704860687E+001	-2,0735073E-003
30/08/2025 17:26:43.7033	7,493799492454528E+000	-2,1881063E-003
30/08/2025 17:27:07.7033	5,382351989936822E+000	-2,0735073E-003
30/08/2025 17:27:31.7033	3,705053862762448E+000	-2,1499067E-003
30/08/2025 17:27:55.7033	2,481962867641450E+000	-2,1499067E-003
30/08/2025 17:28:19.7033	1,561281825900076E+000	-2,1499067E-003
30/08/2025 17:28:43.7033	9,112171582460400E-001	-2,1117069E-003
30/08/2025 17:29:07.7033	4,969758587181552E-001	-2,0735073E-003
30/08/2025 17:29:31.7251	2,432485183060167E-001	-2,0926071E-003
30/08/2025 17:29:55.7251	1,335750118508932E-001	-2,1499067E-003
30/08/2025 17:30:19.7251	9,582978274673226E-002	-2,1117069E-003
30/08/2025 17:30:43.7251	1,040621580883858E-001	-2,2263059E-003
30/08/2025 17:31:07.7251	1,399041416704654E-001	-2,1690065E-003
30/08/2025 17:31:31.7251	1,915322488099336E-001	-2,0735073E-003
30/08/2025 17:31:55.7251	2,198884106844661E-001	-2,0926071E-003
30/08/2025 17:32:19.7251	2,568151981234548E-001	-2,0735073E-003
30/08/2025 17:32:43.7251	2,833226798415183E-001	-2,1308069E-003
30/08/2025 17:33:07.7251	3,068212193131448E-001	-2,0926071E-003
30/08/2025 17:33:31.7251	3,198019358992568E-001	-2,2454057E-003
30/08/2025 17:33:55.7251	3,280826995432378E-001	-2,1308069E-003
30/08/2025 17:34:19.7251	3,324148071467875E-001	-2,0926071E-003
30/08/2025 17:34:43.7251	3,434600560247896E-001	-2,2454057E-003
30/08/2025 17:35:07.7251	3,414849614560604E-001	-2,1499067E-003
30/08/2025 17:35:31.7251	3,378223733246326E-001	-2,0162079E-003
30/08/2025 17:35:55.7251	3,411686364471911E-001	-2,0353077E-003
30/08/2025 17:36:19.7251	3,395138379037380E-001	-2,1308069E-003
30/08/2025 17:36:43.7251	3,424544703304764E-001	-2,1308069E-003
30/08/2025 17:37:07.7251	3,356031096398828E-001	-2,1499067E-003
30/08/2025 17:37:31.7251	3,319192021906368E-001	-2,1881063E-003
30/08/2025 17:37:55.7251	3,334433787882323E-001	-2,0735073E-003
30/08/2025 17:38:19.7251	3,294442967653266E-001	-2,2645055E-003
30/08/2025 17:38:43.7251	3,293112322509284E-001	-2,1308069E-003
30/08/2025 17:39:07.7251	3,220867817401886E-001	-2,0544075E-003
30/08/2025 17:39:31.7251	3,202823393702507E-001	-2,1499067E-003
30/08/2025 17:39:55.7251	3,209093851923939E-001	-2,1690065E-003
30/08/2025 17:40:19.7251	3,157342770755287E-001	-2,2645055E-003
30/08/2025 17:40:43.7251	3,150738982915877E-001	-2,0926071E-003
30/08/2025 17:41:07.7251	3,199134127557275E-001	-2,0735073E-003
30/08/2025 17:41:31.7251	3,129545646429062E-001	-2,1308069E-003
30/08/2025 17:41:55.7251	3,128452710330478E-001	-2,1308069E-003
30/08/2025 17:42:19.7251	3,083910043716431E-001	-2,1881063E-003
30/08/2025 17:42:43.7251	3,043679839432238E-001	-2,1690065E-003
30/08/2025 17:43:07.7251	3,088732460319985E-001	-2,0353077E-003
30/08/2025 17:43:31.7251	3,035048047959794E-001	-2,1881063E-003
30/08/2025 17:43:55.7251	3,064479717791082E-001	-2,1117069E-003
30/08/2025 17:44:19.7251	2,984807003021235E-001	-2,1690065E-003
30/08/2025 17:44:43.7251	2,980065230965616E-001	-2,2072061E-003
30/08/2025 17:45:07.7251	2,912375681221482E-001	-2,1499067E-003
30/08/2025 17:45:31.7251	2,951777051031588E-001	-2,1117069E-003
30/08/2025 17:45:55.7251	2,968444502294063E-001	-2,1499067E-003
30/08/2025 17:46:19.7251	2,974336118102072E-001	-2,2072061E-003
30/08/2025 17:46:43.7251	2,905429951846594E-001	-2,1881063E-003
30/08/2025 17:47:07.7251	2,960514215111729E-001	-2,0544075E-003
30/08/2025 17:47:31.7251	2,894537673771382E-001	-2,0544075E-003
30/08/2025 17:47:55.7251	2,894654619991774E-001	-2,0735073E-003
30/08/2025 17:48:19.7251	2,928179323732847E-001	-2,0926071E-003
30/08/2025 17:48:43.7251	2,826760085344313E-001	-2,1881063E-003
30/08/2025 17:49:07.7251	2,824346178233621E-001	-2,1690065E-003
30/08/2025 17:49:31.7251	2,877773151934138E-001	-2,1117069E-003
30/08/2025 17:49:55.7251	2,751795851588250E-001	-2,0735073E-003
30/08/2025 17:50:19.7251	2,796444120407093E-001	-2,2072061E-003
30/08/2025 17:50:43.7251	2,736775269091128E-001	-2,2263059E-003
30/08/2025 17:51:07.7251	2,731547455847254E-001	-2,0926071E-003
30/08/2025 17:51:31.7251	2,694936573207380E-001	-2,0544075E-003
30/08/2025 17:51:55.7251	2,738226697325703E-001	-2,1308069E-003
30/08/2025 17:52:19.7251	2,670709992408753E-001	-2,1117069E-003
30/08/2025 17:52:43.7251	2,685873779892920E-001	-2,1117069E-003
30/08/2025 17:53:07.7251	2,642152008473873E-001	-2,1117069E-003
30/08/2025 17:53:31.7251	2,647637027621270E-001	-2,1117069E-003
30/08/2025 17:53:55.7251	2,637001834809780E-001	-2,1308069E-003
30/08/2025 17:54:19.7251	2,703588216662407E-001	-2,0926071E-003
30/08/2025 17:54:43.7251	2,547405133455989E-001	-2,0544075E-003
30/08/2025 17:55:07.7251	2,545137108147144E-001	-2,1308069E-003
30/08/2025 17:55:31.7251	2,575764385074375E-001	-2,1117069E-003
30/08/2025 17:55:55.7251	2,536333162277935E-001	-2,2454057E-003
30/08/2025 17:56:19.7251	2,525692221224309E-001	-2,1117069E-003
30/08/2025 17:56:43.7251	2,549928406417370E-001	-1,9971081E-003
30/08/2025 17:57:07.7251	2,510718427181242E-001	-2,1881063E-003
30/08/2025 17:57:31.7251	2,479923518240452E-001	-2,1499067E-003
30/08/2025 17:57:55.7251	2,479276406645772E-001	-2,0544075E-003
30/08/2025 17:58:19.7251	2,419963990181682E-001	-2,1308069E-003
30/08/2025 17:58:43.7251	2,447178525775671E-001	-2,0544075E-003
30/08/2025 17:59:07.7251	2,454668352961535E-001	-1,9016090E-003
30/08/2025 17:59:31.7251	2,356796290904282E-001	-2,1499067E-003
30/08/2025 17:59:55.7251	2,571834521532059E-001	-2,1881063E-003
30/08/2025 18:00:19.7251	2,465667468905446E-001	-2,1308069E-003
30/08/2025 18:00:43.7251	2,372294414222242E-001	-2,1308069E-003
30/08/2025 18:01:07.7251	2,386997955441474E-001	-2,1499067E-003
30/08/2025 18:01:31.7251	2,380508580237617E-001	-2,1308069E-003
30/08/2025 18:01:55.7251	2,347656783044338E-001	-2,1117069E-003
30/08/2025 18:02:19.7251	2,476713271111248E-001	-2,1117069E-003
30/08/2025 18:02:43.7251	2,421426853835582E-001	-2,1117069E-003
30/08/2025 18:03:07.7251	2,297653366118668E-001	-2,1499067E-003
30/08/2025 18:03:31.7251	2,293945346176614E-001	-2,1499067E-003
30/08/2025 18:03:55.7251	2,298872909933329E-001	-2,0926071E-003
30/08/2025 18:04:19.7251	2,273249679028986E-001	-2,0735073E-003
30/08/2025 18:04:43.7251	2,270287312060590E-001	-2,0735073E-003
30/08/2025 18:05:07.7251	2,223512790769338E-001	-2,1499067E-003
30/08/2025 18:05:31.7251	2,220971210032703E-001	-2,0353077E-003
30/08/2025 18:05:55.7251	2,186875009059905E-001	-2,1690065E-003
30/08/2025 18:06:19.7251	2,266476150423288E-001	-2,1308069E-003
30/08/2025 18:06:43.7251	2,134073387980461E-001	-2,0544075E-003
30/08/2025 18:07:07.7251	2,160088741630315E-001	-2,0926071E-003
30/08/2025 18:07:31.7251	2,119366416364903E-001	-2,0544075E-003
30/08/2025 18:07:55.7250	2,095838899642226E-001	-2,0926071E-003
30/08/2025 18:08:19.7250	2,083165657639503E-001	-2,0735073E-003
30/08/2025 18:08:43.7250	2,105627402961252E-001	-2,0926071E-003
30/08/2025 18:09:07.7250	2,160352423578500E-001	-2,1499067E-003
30/08/2025 18:09:31.7250	2,109871946215630E-001	-2,2072061E-003
30/08/2025 18:09:55.7250	2,175933640301224E-001	-2,1117069E-003
30/08/2025 18:10:19.7250	2,114593483239409E-001	-2,1881063E-003
30/08/2025 18:10:43.7250	2,029143753468989E-001	-2,1117069E-003
30/08/2025 18:11:07.7250	2,001681599229574E-001	-2,0735073E-003
30/08/2025 18:11:31.7250	2,032920120686293E-001	-2,1308069E-003
30/08/2025 18:11:55.7250	1,988191477328538E-001	-2,0926071E-003
30/08/2025 18:12:19.7250	2,018645465940234E-001	-1,9971081E-003
30/08/2025 18:12:43.7250	1,969687846183774E-001	-2,1117069E-003
30/08/2025 18:13:07.7250	2,062935678422451E-001	-2,1499067E-003
30/08/2025 18:13:31.7250	1,986373190075159E-001	-2,1881063E-003
30/08/2025 18:13:55.7250	1,954501690626145E-001	-2,1499067E-003
30/08/2025 18:14:19.7250	1,986890010237692E-001	-2,1499067E-003
30/08/2025 18:14:43.7250	1,983929825246333E-001	-2,1308069E-003
30/08/2025 18:15:07.7250	1,921190712958571E-001	-2,2072061E-003
30/08/2025 18:15:31.7250	1,865843883305787E-001	-2,1117069E-003
30/08/2025 18:15:55.7250	1,889314108908171E-001	-2,0735073E-003
30/08/2025 18:16:19.7250	1,898187095254660E-001	-2,1308069E-003
30/08/2025 18:16:43.7250	1,915886824458837E-001	-2,1881063E-003
30/08/2025 18:17:07.7250	1,920062743991613E-001	-2,1308069E-003
30/08/2025 18:17:31.7250	1,830661851674318E-001	-1,9971081E-003
30/08/2025 18:17:55.7250	1,850839162021871E-001	-2,2263059E-003
30/08/2025 18:18:19.7250	1,784472769081592E-001	-2,1308069E-003
30/08/2025 18:18:43.7250	1,842675264209506E-001	-2,1690065E-003
30/08/2025 18:19:07.7250	1,752387190937994E-001	-2,1117069E-003
30/08/2025 18:19:31.7250	1,717892135947943E-001	-2,1117069E-003
30/08/2025 18:19:55.7250	1,729867668360470E-001	-2,1117069E-003
30/08/2025 18:20:19.7250	1,738300613194704E-001	-2,0926071E-003
30/08/2025 18:20:43.7250	1,694811592787503E-001	-2,0735073E-003
30/08/2025 18:21:07.7250	1,678971659511327E-001	-2,0544075E-003
30/08/2025 18:21:31.7250	1,828547090858221E-001	-2,1690065E-003
30/08/2025 18:21:55.7250	1,711832589775323E-001	-2,1117069E-003
30/08/2025 18:22:19.7250	1,708943134784697E-001	-2,1690065E-003
30/08/2025 18:22:43.7250	1,689555519372223E-001	-2,1308069E-003
30/08/2025 18:23:07.7250	1,690063161283731E-001	-2,0926071E-003
30/08/2025 18:23:31.7250	1,667742702394723E-001	-2,2454057E-003
30/08/2025 18:23:55.7250	1,628098326802253E-001	-2,0926071E-003
30/08/2025 18:24:18.6554	1,631729399091908E-001	-2,2263059E-003