Folder: marimo-notebooks/data/phase_2a/Sergey/1/20.7/02 polarisation (part 2)

File: SN50_C5D2E1_hr_0,1MFeCN6_in_1M_KCl_3306mL_symmetric_balanced_4_point_PEIS_10mHz_200kHz_10mV_04_CA_C16.txt
time/s	<I>/mA	Ewe/V
27/08/2025 11:00:18.2421	1,248228186148849E+002	-2,0735073E-003
27/08/2025 11:00:42.2421	7,486769483184816E+000	-2,1881063E-003
27/08/2025 11:01:06.2421	7,715686579036685E+000	-2,2263059E-003
27/08/2025 11:01:30.2421	7,591185301971422E+000	-2,0926071E-003
27/08/2025 11:01:54.2421	7,465498770618439E+000	-2,1881063E-003
27/08/2025 11:02:18.2421	7,349405584239960E+000	-2,1690065E-003
27/08/2025 11:02:42.2421	7,236028985786419E+000	-2,3027051E-003
27/08/2025 11:03:06.2421	7,107921023464172E+000	-2,2072061E-003
27/08/2025 11:03:30.2421	7,000346274375914E+000	-2,1499067E-003
27/08/2025 11:03:54.2421	6,892726213169084E+000	-2,0735073E-003
27/08/2025 11:04:18.2421	6,785444647884368E+000	-2,0544075E-003
27/08/2025 11:04:42.2421	6,677237779426576E+000	-2,2072061E-003
27/08/2025 11:05:06.2421	6,579551937389368E+000	-2,1690065E-003
27/08/2025 11:05:30.2421	6,480612150955196E+000	-2,2454057E-003
27/08/2025 11:05:54.2421	6,378289225482940E+000	-2,0926071E-003
27/08/2025 11:06:18.2421	6,287162911415095E+000	-2,2263059E-003
27/08/2025 11:06:42.2421	6,187891851997378E+000	-2,0353077E-003
27/08/2025 11:07:06.2421	6,096990746116632E+000	-2,1499067E-003
27/08/2025 11:07:30.2421	6,006515146350850E+000	-2,0735073E-003
27/08/2025 11:07:54.2421	5,917817676734920E+000	-2,0353077E-003
27/08/2025 11:08:18.2421	5,825165862369531E+000	-2,1117069E-003
27/08/2025 11:08:42.2421	5,758515975475305E+000	-2,1499067E-003
27/08/2025 11:09:06.2421	5,666282543659207E+000	-2,1690065E-003
27/08/2025 11:09:30.2421	5,578602629470822E+000	-2,2263059E-003
27/08/2025 11:09:54.2421	5,503246152019500E+000	-2,1117069E-003
27/08/2025 11:10:18.2421	5,417121067905413E+000	-2,0544075E-003
27/08/2025 11:10:42.2421	5,342619263839723E+000	-2,1117069E-003
27/08/2025 11:11:06.2421	5,267252407073975E+000	-2,1499067E-003
27/08/2025 11:11:30.2421	5,186271523094177E+000	-1,9589085E-003
27/08/2025 11:11:54.2421	5,107308104324332E+000	-2,0926071E-003
27/08/2025 11:12:18.2421	5,030817100524899E+000	-2,1308069E-003
27/08/2025 11:12:42.2421	4,956569132709504E+000	-2,0735073E-003
27/08/2025 11:13:06.2421	4,885156492233278E+000	-2,0544075E-003
27/08/2025 11:13:30.2421	4,818246231842039E+000	-2,1690065E-003
27/08/2025 11:13:54.2421	4,746805049228669E+000	-2,0353077E-003
27/08/2025 11:14:18.2421	4,674371159172054E+000	-2,0544075E-003
27/08/2025 11:14:42.2421	4,609798352718350E+000	-2,0926071E-003
27/08/2025 11:15:06.2421	4,539506293964379E+000	-2,0735073E-003
27/08/2025 11:15:30.2421	4,409698571777341E+000	-2,0926071E-003
27/08/2025 11:15:54.2421	4,356859684848786E+000	-2,2072061E-003
27/08/2025 11:16:18.2421	4,285202808761596E+000	-2,2645055E-003
27/08/2025 11:16:42.2421	4,225913968086243E+000	-2,1881063E-003
27/08/2025 11:17:06.2421	4,168801722908015E+000	-2,1117069E-003
27/08/2025 11:17:30.2421	4,100789519882202E+000	-2,1117069E-003
27/08/2025 11:17:54.2421	4,049551854610442E+000	-2,0926071E-003
27/08/2025 11:18:18.2421	3,987256106662748E+000	-1,9780083E-003
27/08/2025 11:18:42.2421	3,928414973783489E+000	-2,1881063E-003
27/08/2025 11:19:06.2421	3,876880017805092E+000	-2,0926071E-003
27/08/2025 11:19:30.2421	3,824995810508725E+000	-2,0735073E-003
27/08/2025 11:19:54.2421	3,765308934020993E+000	-2,1881063E-003
27/08/2025 11:20:18.2421	3,708139279747002E+000	-2,1690065E-003
27/08/2025 11:20:42.2421	3,657417330932613E+000	-2,1881063E-003
27/08/2025 11:21:06.2421	3,604817200756074E+000	-2,0926071E-003
27/08/2025 11:21:30.2421	3,553218815994262E+000	-2,0735073E-003
27/08/2025 11:21:54.2421	3,502505914688108E+000	-2,1881063E-003
27/08/2025 11:22:18.2421	3,445108872938155E+000	-2,1499067E-003
27/08/2025 11:22:42.2421	3,394755059576028E+000	-2,0353077E-003
27/08/2025 11:23:06.2421	3,347689287042613E+000	-2,1499067E-003
27/08/2025 11:23:30.2421	3,297507670211786E+000	-2,0162079E-003
27/08/2025 11:23:54.2421	3,259992075014114E+000	-2,0926071E-003
27/08/2025 11:24:18.2421	3,204925128221504E+000	-2,1308069E-003
27/08/2025 11:24:42.2421	3,149734904241562E+000	-2,0735073E-003
27/08/2025 11:25:06.2421	3,110161554908752E+000	-2,1117069E-003
27/08/2025 11:25:30.2421	3,059040737771987E+000	-2,0926071E-003
27/08/2025 11:25:54.2421	3,012260438966751E+000	-2,1117069E-003
27/08/2025 11:26:18.2421	2,972351860046381E+000	-2,0926071E-003
27/08/2025 11:26:42.2421	2,935049001789093E+000	-2,1499067E-003
27/08/2025 11:27:06.2421	2,892257992124556E+000	-1,9971081E-003
27/08/2025 11:27:30.2421	2,850351030063628E+000	-2,1690065E-003
27/08/2025 11:27:54.2421	2,813675676202770E+000	-2,0926071E-003
27/08/2025 11:28:18.2421	2,763162941026678E+000	-2,1308069E-003
27/08/2025 11:28:42.2421	2,723716339731212E+000	-2,1117069E-003
27/08/2025 11:29:06.2421	2,686209294652933E+000	-2,1499067E-003
27/08/2025 11:29:30.2421	2,648013029527661E+000	-2,1308069E-003
27/08/2025 11:29:54.2421	2,617894652700424E+000	-2,0544075E-003
27/08/2025 11:30:18.2421	2,583876370048523E+000	-1,9780083E-003
27/08/2025 11:30:42.2421	2,541704956006996E+000	-2,2454057E-003
27/08/2025 11:31:06.2421	2,500728358364105E+000	-2,1117069E-003
27/08/2025 11:31:30.2421	2,471600836324690E+000	-2,0544075E-003
27/08/2025 11:31:54.2421	2,428793027544017E+000	-2,1308069E-003
27/08/2025 11:32:18.2421	2,398334908294679E+000	-2,2454057E-003
27/08/2025 11:32:42.2421	2,357402951431276E+000	-2,1308069E-003
27/08/2025 11:33:06.2421	2,326646733140940E+000	-2,1499067E-003
27/08/2025 11:33:30.2421	2,294866085004807E+000	-2,1308069E-003
27/08/2025 11:33:54.2421	2,255016712236404E+000	-2,0926071E-003
27/08/2025 11:34:18.2421	2,228769342851635E+000	-2,1117069E-003
27/08/2025 11:34:42.2421	2,192463321447370E+000	-2,2454057E-003
27/08/2025 11:35:06.2421	2,164678085708618E+000	-2,1499067E-003
27/08/2025 11:35:30.2421	2,132558087921142E+000	-2,1117069E-003
27/08/2025 11:35:54.2421	2,109063179683684E+000	-2,0735073E-003
27/08/2025 11:36:18.2421	2,072992035675050E+000	-2,0926071E-003
27/08/2025 11:36:42.2421	2,046074114704130E+000	-2,0926071E-003
27/08/2025 11:37:06.2421	2,008853519725797E+000	-2,0735073E-003
27/08/2025 11:37:30.2421	1,977845744466780E+000	-2,0162079E-003
27/08/2025 11:37:54.2421	1,950040914487838E+000	-2,1308069E-003
27/08/2025 11:38:18.2421	1,925146786999701E+000	-2,1117069E-003
27/08/2025 11:38:42.2420	1,891866768956177E+000	-2,1308069E-003
27/08/2025 11:39:06.2420	1,867825536274909E+000	-2,0735073E-003
27/08/2025 11:39:30.2420	1,848405074501031E+000	-2,1881063E-003
27/08/2025 11:39:54.2420	1,817617967104912E+000	-2,0926071E-003
27/08/2025 11:40:18.2420	1,786388149762153E+000	-2,2454057E-003
27/08/2025 11:40:42.2420	1,754139709353446E+000	-2,0544075E-003
27/08/2025 11:41:06.2420	1,737601797461508E+000	-2,2454057E-003
27/08/2025 11:41:30.2420	1,710582568502417E+000	-2,1117069E-003
27/08/2025 11:41:54.2420	1,686951935911175E+000	-2,0926071E-003
27/08/2025 11:42:18.2420	1,665523516702652E+000	-2,1117069E-003
27/08/2025 11:42:42.2420	1,643097128248215E+000	-2,1117069E-003
27/08/2025 11:43:06.2420	1,618258217716217E+000	-2,2072061E-003
27/08/2025 11:43:30.2420	1,590652199745177E+000	-2,2263059E-003
27/08/2025 11:43:54.2420	1,568536785697935E+000	-2,1499067E-003
27/08/2025 11:44:18.2420	1,543722224640845E+000	-2,0926071E-003
27/08/2025 11:44:42.2420	1,521536936879158E+000	-2,0926071E-003
27/08/2025 11:45:06.2420	1,499458333373068E+000	-2,0353077E-003
27/08/2025 11:45:30.2420	1,488566170120238E+000	-2,1499067E-003
27/08/2025 11:45:54.2420	1,469636097145080E+000	-2,2263059E-003
27/08/2025 11:46:18.2420	1,439561290526388E+000	-2,0544075E-003
27/08/2025 11:46:42.2420	1,422608371686935E+000	-2,1308069E-003
27/08/2025 11:47:06.2420	1,399323128271101E+000	-2,1690065E-003
27/08/2025 11:47:30.2420	1,379669151616095E+000	-2,0735073E-003
27/08/2025 11:47:54.2420	1,357642075657843E+000	-2,1308069E-003
27/08/2025 11:48:18.2420	1,332432843136788E+000	-2,0735073E-003
27/08/2025 11:48:42.2420	1,320312395954131E+000	-2,1308069E-003
27/08/2025 11:49:06.2420	1,302041770577431E+000	-2,1690065E-003
27/08/2025 11:49:30.2420	1,287148558020590E+000	-2,1690065E-003
27/08/2025 11:49:54.2420	1,256270883750916E+000	-2,1117069E-003
27/08/2025 11:50:18.2420	1,239501221776008E+000	-2,0162079E-003
27/08/2025 11:50:42.2420	1,229572793006895E+000	-2,0735073E-003
27/08/2025 11:51:06.2420	1,213270219111440E+000	-2,1308069E-003
27/08/2025 11:51:30.2420	1,194626342344283E+000	-2,1690065E-003
27/08/2025 11:51:54.2420	1,183725835514069E+000	-2,1690065E-003
27/08/2025 11:52:18.2420	1,159426341986656E+000	-2,1881063E-003
27/08/2025 11:52:42.2420	1,140534243583680E+000	-2,0926071E-003
27/08/2025 11:53:06.2420	1,123195065283775E+000	-2,2072061E-003
27/08/2025 11:53:30.2420	1,108121522688865E+000	-2,1308069E-003
27/08/2025 11:53:54.2420	1,102457555246350E+000	-2,1117069E-003
27/08/2025 11:54:18.2420	1,084618663835526E+000	-2,1499067E-003
27/08/2025 11:54:42.2420	1,062819102787971E+000	-2,1499067E-003
27/08/2025 11:55:06.2420	1,054935567331314E+000	-2,0926071E-003
27/08/2025 11:55:30.2420	1,033748703122139E+000	-2,0926071E-003
27/08/2025 11:55:54.2420	1,021585670721532E+000	-2,0735073E-003
27/08/2025 11:56:18.2420	1,004819538629054E+000	-2,1308069E-003
27/08/2025 11:56:42.2420	9,959777403116199E-001	-2,0926071E-003
27/08/2025 11:57:06.2420	9,774535308957099E-001	-2,0735073E-003
27/08/2025 11:57:30.2420	9,600228445529915E-001	-2,0926071E-003
27/08/2025 11:57:54.2420	9,475322081923458E-001	-2,2263059E-003
27/08/2025 11:58:18.2420	9,373938817143443E-001	-2,1308069E-003
27/08/2025 11:58:42.2420	9,264234510064107E-001	-2,0735073E-003
27/08/2025 11:59:06.2420	9,123697994709010E-001	-2,0735073E-003
27/08/2025 11:59:30.2420	8,983229030728328E-001	-2,1499067E-003
27/08/2025 11:59:54.2420	8,848825326800345E-001	-2,0162079E-003
27/08/2025 12:00:17.1942	8,723741181005427E-001	-2,0353077E-003