Folder: marimo-notebooks/data/phase_2a/Sergey/1/3.3/02 polarisation (part 2)

File: SN50_C5D1E1_lr_0,1MFeCN6_in_1M_KCl_3306mL_symmetric_balanced_4_point_PEIS_10mHz_200kHz_10mV_04_CA_C16.txt
time/s	<I>/mA	Ewe/V
26/08/2025 20:46:45.3859	3,965751215263062E+002	-2,1690065E-003
26/08/2025 20:47:09.3859	7,149037678070067E+001	-2,0353077E-003
26/08/2025 20:47:33.3859	3,067467018165581E+001	-2,0162079E-003
26/08/2025 20:47:57.3859	1,669579487266540E+001	-2,0735073E-003
26/08/2025 20:48:21.3859	1,087045845336914E+001	-2,0735073E-003
26/08/2025 20:48:45.3859	7,256357064437864E+000	-2,1117069E-003
26/08/2025 20:49:09.3859	4,599493910217284E+000	-2,1117069E-003
26/08/2025 20:49:33.3859	2,575558839654917E+000	-2,0735073E-003
26/08/2025 20:49:57.3859	1,108108249306678E+000	-2,0735073E-003
26/08/2025 20:50:21.3859	1,699603359972152E-002	-2,0926071E-003
26/08/2025 20:50:45.3859	-7,322832547307012E-001	-2,2072061E-003
26/08/2025 20:51:09.3859	-1,186675580358507E+000	-2,1499067E-003
26/08/2025 20:51:33.3859	-1,415008286666872E+000	-2,0544075E-003
26/08/2025 20:51:57.3859	-1,481688639068604E+000	-2,1308069E-003
26/08/2025 20:52:21.3859	-1,464520963025095E+000	-2,1499067E-003
26/08/2025 20:52:45.3859	-1,395331067085266E+000	-2,0162079E-003
26/08/2025 20:53:09.3859	-1,314291548943523E+000	-2,0926071E-003
26/08/2025 20:53:33.3859	-1,235295654344559E+000	-2,0735073E-003
26/08/2025 20:53:57.3859	-1,165226350903511E+000	-2,2263059E-003
26/08/2025 20:54:21.3859	-1,103545161628725E+000	-2,1117069E-003
26/08/2025 20:54:45.3859	-1,066311117672921E+000	-2,0544075E-003
26/08/2025 20:55:09.3859	-1,037055361056328E+000	-2,0735073E-003
26/08/2025 20:55:33.3859	-1,010277109217647E+000	-2,1117069E-003
26/08/2025 20:55:57.3859	-9,869013854503628E-001	-2,1308069E-003
26/08/2025 20:56:21.3859	-9,828952427387243E-001	-2,0926071E-003
26/08/2025 20:56:45.3859	-9,711943452119840E-001	-2,1881063E-003
26/08/2025 20:57:09.3859	-9,632092233777065E-001	-2,0353077E-003
26/08/2025 20:57:33.3859	-9,598133267641078E-001	-2,1881063E-003
26/08/2025 20:57:57.3859	-9,515987925052656E-001	-2,0926071E-003
26/08/2025 20:58:21.3859	-9,456199526906017E-001	-2,1881063E-003
26/08/2025 20:58:45.3859	-9,355789861679096E-001	-2,0735073E-003
26/08/2025 20:59:09.3859	-9,315355474352836E-001	-2,1881063E-003
26/08/2025 20:59:33.3859	-9,295408043146143E-001	-2,1117069E-003
26/08/2025 20:59:57.3859	-9,200141800522808E-001	-2,1499067E-003
26/08/2025 21:00:21.3859	-9,122630622386971E-001	-2,1308069E-003
26/08/2025 21:00:45.3859	-9,070908576965344E-001	-2,0926071E-003
26/08/2025 21:01:09.3859	-8,998573774576197E-001	-2,0926071E-003
26/08/2025 21:01:33.3859	-8,920362805604967E-001	-2,1881063E-003
26/08/2025 21:01:57.3859	-8,882527472376829E-001	-2,0735073E-003
26/08/2025 21:02:21.3859	-8,875847289800660E-001	-2,0735073E-003
26/08/2025 21:02:45.3859	-8,797379356265065E-001	-2,2072061E-003
26/08/2025 21:03:09.3859	-8,722421902656574E-001	-2,0926071E-003
26/08/2025 21:03:33.3859	-8,669152146697048E-001	-2,0926071E-003
26/08/2025 21:03:57.3859	-8,591248288869862E-001	-2,0544075E-003
26/08/2025 21:04:21.3859	-8,541960201621057E-001	-2,1881063E-003
26/08/2025 21:04:45.3859	-8,523539382696157E-001	-2,1117069E-003
26/08/2025 21:05:09.3859	-8,445685353994392E-001	-2,1690065E-003
26/08/2025 21:05:33.3859	-8,353149141669292E-001	-2,1499067E-003
26/08/2025 21:05:57.3859	-8,276406507849694E-001	-2,1881063E-003
26/08/2025 21:06:21.3859	-8,227673445463211E-001	-2,1117069E-003
26/08/2025 21:06:45.3859	-8,217789052367213E-001	-2,1881063E-003
26/08/2025 21:07:09.3859	-8,146262728810312E-001	-2,1117069E-003
26/08/2025 21:07:33.3859	-8,127328975200658E-001	-2,0926071E-003
26/08/2025 21:07:57.3859	-8,034578655004507E-001	-2,1117069E-003
26/08/2025 21:08:21.3859	-8,006680126786234E-001	-2,1117069E-003
26/08/2025 21:08:45.3859	-7,941399006962797E-001	-2,1881063E-003
26/08/2025 21:09:09.3859	-7,882739227771767E-001	-2,0926071E-003
26/08/2025 21:09:33.3859	-7,829240730762486E-001	-2,1308069E-003
26/08/2025 21:09:57.3859	-7,750619282722475E-001	-2,0926071E-003
26/08/2025 21:10:21.3859	-7,712816243529321E-001	-2,1117069E-003
26/08/2025 21:10:45.3859	-7,647153838157656E-001	-2,1690065E-003
26/08/2025 21:11:09.3859	-7,645861577391626E-001	-2,0544075E-003
26/08/2025 21:11:33.3859	-7,581610499858868E-001	-2,1117069E-003
26/08/2025 21:11:57.3859	-7,540630047440531E-001	-2,1117069E-003
26/08/2025 21:12:21.3859	-7,430250879883769E-001	-2,1499067E-003
26/08/2025 21:12:45.3859	-7,341447833657284E-001	-2,1308069E-003
26/08/2025 21:13:09.3859	-7,337135051608088E-001	-2,0544075E-003
26/08/2025 21:13:33.3859	-7,295798757076266E-001	-1,9971081E-003
26/08/2025 21:13:57.3859	-7,248346395492558E-001	-2,0735073E-003
26/08/2025 21:14:21.3859	-7,174608189344411E-001	-2,0926071E-003
26/08/2025 21:14:45.3859	-7,147089469075212E-001	-2,1308069E-003
26/08/2025 21:15:09.3859	-7,099465564608582E-001	-2,1117069E-003
26/08/2025 21:15:33.3859	-7,126639677166935E-001	-2,1499067E-003
26/08/2025 21:15:57.3859	-7,074903813242914E-001	-2,0735073E-003
26/08/2025 21:16:21.3859	-6,990560220718387E-001	-2,1690065E-003
26/08/2025 21:16:45.3859	-6,955847146749496E-001	-2,1308069E-003
26/08/2025 21:17:09.3859	-6,895418630003940E-001	-2,1499067E-003
26/08/2025 21:17:33.3859	-6,939234573960320E-001	-2,0926071E-003
26/08/2025 21:17:57.3859	-6,840780847191814E-001	-2,0926071E-003
26/08/2025 21:18:21.3859	-6,773346517801295E-001	-2,1499067E-003
26/08/2025 21:18:45.3859	-6,799554379940034E-001	-2,2072061E-003
26/08/2025 21:19:09.3859	-6,652591260671616E-001	-2,1499067E-003
26/08/2025 21:19:33.3859	-6,619357061862949E-001	-2,1499067E-003
26/08/2025 21:19:57.3859	-6,632304761886598E-001	-2,1690065E-003
26/08/2025 21:20:21.3859	-6,550772828102112E-001	-2,1308069E-003
26/08/2025 21:20:45.3859	-6,551122197270391E-001	-2,1117069E-003
26/08/2025 21:21:09.3859	-6,492798291563990E-001	-2,1690065E-003
26/08/2025 21:21:33.3859	-6,454659184336666E-001	-2,0353077E-003
26/08/2025 21:21:57.3859	-6,396467311620722E-001	-1,9780083E-003
26/08/2025 21:22:21.3859	-6,338035261988662E-001	-2,1308069E-003
26/08/2025 21:22:45.3859	-6,312139670372012E-001	-2,1117069E-003
26/08/2025 21:23:09.3859	-6,276386349558831E-001	-2,1308069E-003
26/08/2025 21:23:33.3859	-6,170782036781315E-001	-2,1690065E-003
26/08/2025 21:23:57.3859	-6,184337507009516E-001	-2,1308069E-003
26/08/2025 21:24:21.3859	-6,180243443250659E-001	-2,2263059E-003
26/08/2025 21:24:45.3859	-6,077691174745565E-001	-2,0926071E-003
26/08/2025 21:25:09.3859	-6,045948111057289E-001	-2,1690065E-003
26/08/2025 21:25:33.3859	-6,056041052222256E-001	-2,0353077E-003
26/08/2025 21:25:57.3859	-6,010714533448240E-001	-2,0735073E-003
26/08/2025 21:26:21.3859	-5,891257944583899E-001	-2,1881063E-003
26/08/2025 21:26:45.3859	-5,869946242213260E-001	-2,1308069E-003
26/08/2025 21:27:09.3859	-5,841443782448774E-001	-2,1117069E-003
26/08/2025 21:27:33.3859	-5,811155637383472E-001	-2,1308069E-003
26/08/2025 21:27:57.3859	-5,770410761356359E-001	-2,1499067E-003
26/08/2025 21:28:21.3859	-5,759816564321536E-001	-2,1117069E-003
26/08/2025 21:28:45.3859	-5,701994933724404E-001	-2,2072061E-003
26/08/2025 21:29:09.3859	-5,689780240535738E-001	-2,1308069E-003
26/08/2025 21:29:33.3859	-5,645826686143884E-001	-2,0162079E-003
26/08/2025 21:29:57.3858	-5,588569004416470E-001	-2,1499067E-003
26/08/2025 21:30:21.3858	-5,531121450424199E-001	-2,1308069E-003
26/08/2025 21:30:45.3858	-5,498051074028016E-001	-2,2263059E-003
26/08/2025 21:31:09.3858	-5,504106445193298E-001	-2,1308069E-003
26/08/2025 21:31:33.3858	-5,464023437142371E-001	-2,1117069E-003
26/08/2025 21:31:57.3858	-5,460790760040304E-001	-2,1117069E-003
26/08/2025 21:32:21.3858	-5,367004145622261E-001	-2,1499067E-003
26/08/2025 21:32:45.3858	-5,333553983330734E-001	-2,1308069E-003
26/08/2025 21:33:09.3858	-5,323728916287422E-001	-2,1117069E-003
26/08/2025 21:33:33.3858	-5,218934978425505E-001	-2,1117069E-003
26/08/2025 21:33:57.3858	-5,228244158029556E-001	-2,0353077E-003
26/08/2025 21:34:21.3858	-5,232836755216130E-001	-2,2072061E-003
26/08/2025 21:34:45.3858	-5,184524181842809E-001	-2,0926071E-003
26/08/2025 21:35:09.3858	-5,116878298759460E-001	-2,1690065E-003
26/08/2025 21:35:33.3858	-5,067903635561475E-001	-2,1690065E-003
26/08/2025 21:35:57.3858	-5,051543060064319E-001	-2,1690065E-003
26/08/2025 21:36:21.3858	-5,042049359798431E-001	-2,1499067E-003
26/08/2025 21:36:45.3858	-5,007204988121987E-001	-2,0544075E-003
26/08/2025 21:37:09.3858	-4,989465466558934E-001	-2,1117069E-003
26/08/2025 21:37:33.3858	-4,913391063869010E-001	-2,1117069E-003
26/08/2025 21:37:57.3858	-4,908493745028973E-001	-2,1499067E-003
26/08/2025 21:38:21.3858	-4,869859947800634E-001	-2,1308069E-003
26/08/2025 21:38:45.3858	-4,820481180608276E-001	-2,0926071E-003
26/08/2025 21:39:09.3858	-4,816354428172120E-001	-2,1308069E-003
26/08/2025 21:39:33.3858	-4,764316212236892E-001	-2,0353077E-003
26/08/2025 21:39:57.3858	-4,741446286976343E-001	-2,0353077E-003
26/08/2025 21:40:21.3858	-4,752065043270592E-001	-2,1881063E-003
26/08/2025 21:40:45.3858	-4,776585168182859E-001	-2,0926071E-003
26/08/2025 21:41:09.3858	-4,734253967583184E-001	-2,1117069E-003
26/08/2025 21:41:33.3858	-4,672202164232731E-001	-2,0353077E-003
26/08/2025 21:41:57.3858	-4,659703842163090E-001	-2,0926071E-003
26/08/2025 21:42:21.3858	-4,576812319278720E-001	-2,1881063E-003
26/08/2025 21:42:45.3858	-4,545960179090502E-001	-2,1308069E-003
26/08/2025 21:43:09.3858	-4,541414735496043E-001	-2,2454057E-003
26/08/2025 21:43:33.3858	-4,541476154744624E-001	-1,9780083E-003
26/08/2025 21:43:57.3858	-4,462258117198949E-001	-2,0544075E-003
26/08/2025 21:44:21.3858	-4,475193859815603E-001	-2,1690065E-003
26/08/2025 21:44:45.3858	-4,437367740869522E-001	-2,0353077E-003
26/08/2025 21:45:09.3858	-4,427269188284875E-001	-2,0544075E-003
26/08/2025 21:45:33.3858	-4,376418766200549E-001	-2,0353077E-003
26/08/2025 21:45:57.3858	-4,376557257175451E-001	-2,2454057E-003
26/08/2025 21:46:21.3858	-4,321013593196872E-001	-2,1308069E-003
26/08/2025 21:46:44.3380	-4,339742440870396E-001	-2,2263059E-003