Folder: marimo-notebooks/data/phase_2a/Sergey/2/8.3/02 polarisation (part 2)

File: SN50_C6aD1E1_mr 0,1MFeCN6_in_1M_KCl_3306mL_symmetric_balanced_4_point_PEIS_10mHz_200kHz_10mV_04_CA_C16.txt
time/s	<I>/mA	Ewe/V
30/08/2025 23:05:02.8001	2,865318681842391E+002	-2,1881063E-003
30/08/2025 23:05:26.8001	1,807853262100218E+001	-2,1308069E-003
30/08/2025 23:05:50.8001	3,824097544479358E+000	-2,1690065E-003
30/08/2025 23:06:14.8001	3,396198930025101E+000	-2,0926071E-003
30/08/2025 23:06:38.8001	4,093682778644561E+000	-2,1881063E-003
30/08/2025 23:07:02.8001	4,454476333618164E+000	-2,1308069E-003
30/08/2025 23:07:26.8001	4,556268690872193E+000	-2,1881063E-003
30/08/2025 23:07:50.8001	4,513104781532277E+000	-2,2263059E-003
30/08/2025 23:08:14.8001	4,447161361503589E+000	-2,2454057E-003
30/08/2025 23:08:38.8001	4,395731272029877E+000	-2,1499067E-003
30/08/2025 23:09:02.8001	4,346452105045316E+000	-2,0162079E-003
30/08/2025 23:09:26.8001	4,304645854473108E+000	-2,1117069E-003
30/08/2025 23:09:50.8001	4,243974065208434E+000	-2,1117069E-003
30/08/2025 23:10:14.8001	4,190997958946227E+000	-2,1881063E-003
30/08/2025 23:10:38.8001	4,147825262546538E+000	-2,1690065E-003
30/08/2025 23:11:02.8001	4,099020491504668E+000	-2,1881063E-003
30/08/2025 23:11:26.8001	4,051923390865319E+000	-2,0544075E-003
30/08/2025 23:11:50.8001	4,002246499252308E+000	-2,2263059E-003
30/08/2025 23:12:14.8001	3,950949585294723E+000	-2,0735073E-003
30/08/2025 23:12:38.8001	3,909472966241836E+000	-2,1690065E-003
30/08/2025 23:13:02.8001	3,863758134222028E+000	-2,1690065E-003
30/08/2025 23:13:26.8001	3,824333475494385E+000	-2,1117069E-003
30/08/2025 23:13:50.8001	3,779067627382275E+000	-2,1690065E-003
30/08/2025 23:14:14.8001	3,740271453189834E+000	-2,0926071E-003
30/08/2025 23:14:38.8001	3,698085967159258E+000	-2,0926071E-003
30/08/2025 23:15:02.8001	3,652071666717529E+000	-2,1117069E-003
30/08/2025 23:15:26.8001	3,622889409446699E+000	-2,1308069E-003
30/08/2025 23:15:50.8001	3,579381512117383E+000	-2,1499067E-003
30/08/2025 23:16:14.8001	3,532813566255568E+000	-2,0353077E-003
30/08/2025 23:16:38.8001	3,492455922460554E+000	-2,1117069E-003
30/08/2025 23:17:02.8001	3,450832231664648E+000	-2,2263059E-003
30/08/2025 23:17:26.8001	3,421886085128776E+000	-2,1499067E-003
30/08/2025 23:17:50.8001	3,375733915138241E+000	-2,1499067E-003
30/08/2025 23:18:14.8001	3,343579619359964E+000	-2,1308069E-003
30/08/2025 23:18:38.8001	3,303777470445632E+000	-2,2072061E-003
30/08/2025 23:19:02.8001	3,267290133285520E+000	-2,1881063E-003
30/08/2025 23:19:26.8001	3,238187147617332E+000	-2,1499067E-003
30/08/2025 23:19:50.8001	3,199339319372179E+000	-2,1690065E-003
30/08/2025 23:20:14.8001	3,167767767381668E+000	-2,0735073E-003
30/08/2025 23:20:38.8001	3,123080920362472E+000	-2,0544075E-003
30/08/2025 23:21:02.8001	3,090964275503158E+000	-2,0735073E-003
30/08/2025 23:21:26.8001	3,056014978170396E+000	-2,1117069E-003
30/08/2025 23:21:50.8001	3,025349549341200E+000	-2,1308069E-003
30/08/2025 23:22:14.8001	3,000290942525858E+000	-2,0735073E-003
30/08/2025 23:22:38.8001	2,959495826435088E+000	-2,1499067E-003
30/08/2025 23:23:02.8001	2,928665153932571E+000	-2,2072061E-003
30/08/2025 23:23:26.8001	2,887663383293150E+000	-2,1117069E-003
30/08/2025 23:23:50.8001	2,864842599248885E+000	-2,2072061E-003
30/08/2025 23:24:14.8001	2,830656991004944E+000	-2,0544075E-003
30/08/2025 23:24:38.8001	2,802524558591842E+000	-2,1308069E-003
30/08/2025 23:25:02.8001	2,764429773044586E+000	-2,0544075E-003
30/08/2025 23:25:26.8001	2,748078314161301E+000	-2,0926071E-003
30/08/2025 23:25:50.8001	2,714796274280548E+000	-2,0162079E-003
30/08/2025 23:26:14.8001	2,688791472005843E+000	-2,0162079E-003
30/08/2025 23:26:38.8001	2,653464116287228E+000	-2,1881063E-003
30/08/2025 23:27:02.8001	2,623114362144469E+000	-2,1117069E-003
30/08/2025 23:27:26.8001	2,592062450695037E+000	-2,1881063E-003
30/08/2025 23:27:50.8001	2,565171496963499E+000	-2,0926071E-003
30/08/2025 23:28:14.8001	2,536926266288758E+000	-2,0544075E-003
30/08/2025 23:28:38.8001	2,514324853897094E+000	-2,0544075E-003
30/08/2025 23:29:02.8001	2,490253291320798E+000	-2,0544075E-003
30/08/2025 23:29:26.8001	2,455574191570278E+000	-2,1690065E-003
30/08/2025 23:29:50.8001	2,428361718940728E+000	-2,1308069E-003
30/08/2025 23:30:14.8001	2,404586800003051E+000	-2,1117069E-003
30/08/2025 23:30:38.8001	2,379514460754394E+000	-2,1117069E-003
30/08/2025 23:31:02.8001	2,346893524265289E+000	-2,0544075E-003
30/08/2025 23:31:26.8001	2,318940912199018E+000	-2,1308069E-003
30/08/2025 23:31:50.8001	2,297609654283519E+000	-2,1308069E-003
30/08/2025 23:32:14.8001	2,269954181623458E+000	-2,2263059E-003
30/08/2025 23:32:38.8001	2,247104833030701E+000	-2,1881063E-003
30/08/2025 23:33:02.8001	2,220520592880241E+000	-2,0544075E-003
30/08/2025 23:33:26.8001	2,198722272920605E+000	-2,1690065E-003
30/08/2025 23:33:50.8001	2,179743377828594E+000	-2,1690065E-003
30/08/2025 23:34:14.8001	2,153874561929705E+000	-1,9780083E-003
30/08/2025 23:34:38.8001	2,128279765510555E+000	-2,1499067E-003
30/08/2025 23:35:02.8001	2,111232781696318E+000	-2,1117069E-003
30/08/2025 23:35:26.8001	2,083357097434997E+000	-2,0926071E-003
30/08/2025 23:35:50.8001	2,055175782585144E+000	-2,1308069E-003
30/08/2025 23:36:14.8001	2,043876074075698E+000	-1,9971081E-003
30/08/2025 23:36:38.8001	2,012929393672941E+000	-2,1308069E-003
30/08/2025 23:37:02.8001	1,988641207075112E+000	-2,1690065E-003
30/08/2025 23:37:26.8001	1,972276801657677E+000	-2,1117069E-003
30/08/2025 23:37:50.8001	1,940473601245877E+000	-2,1308069E-003
30/08/2025 23:38:14.8001	1,924741932177540E+000	-2,2454057E-003
30/08/2025 23:38:38.8001	1,899735194897652E+000	-2,1117069E-003
30/08/2025 23:39:02.8001	1,881155332207680E+000	-1,9589085E-003
30/08/2025 23:39:26.8001	1,856402290368079E+000	-2,1499067E-003
30/08/2025 23:39:50.8001	1,841887847924232E+000	-2,1308069E-003
30/08/2025 23:40:14.8001	1,819065965557094E+000	-2,1308069E-003
30/08/2025 23:40:38.8001	1,799312769222254E+000	-2,2263059E-003
30/08/2025 23:41:02.8001	1,781545406293869E+000	-2,0926071E-003
30/08/2025 23:41:26.8001	1,761013958692551E+000	-2,1881063E-003
30/08/2025 23:41:50.8001	1,742683012461654E+000	-2,2454057E-003
30/08/2025 23:42:14.8001	1,735350048017501E+000	-1,9971081E-003
30/08/2025 23:42:38.8001	1,707315567970276E+000	-2,1881063E-003
30/08/2025 23:43:02.8001	1,688061167883873E+000	-2,1499067E-003
30/08/2025 23:43:26.8000	1,678218439626693E+000	-2,0735073E-003
30/08/2025 23:43:50.8000	1,655538159894942E+000	-2,1308069E-003
30/08/2025 23:44:14.8000	1,627915761971472E+000	-2,1308069E-003
30/08/2025 23:44:38.8000	1,605741728997231E+000	-2,1117069E-003
30/08/2025 23:45:02.8000	1,589321652126308E+000	-2,1117069E-003
30/08/2025 23:45:26.8000	1,582885611796379E+000	-2,0926071E-003
30/08/2025 23:45:50.8000	1,568197983765600E+000	-2,1308069E-003
30/08/2025 23:46:14.8000	1,548264740324020E+000	-2,1117069E-003
30/08/2025 23:46:38.8000	1,532576343154906E+000	-2,0926071E-003
30/08/2025 23:47:02.8000	1,511291276073455E+000	-2,1881063E-003
30/08/2025 23:47:26.8000	1,491882771229744E+000	-2,0735073E-003
30/08/2025 23:47:50.8000	1,472594388389587E+000	-2,0544075E-003
30/08/2025 23:48:14.8000	1,460344168519974E+000	-2,0926071E-003
30/08/2025 23:48:38.8000	1,444511290025711E+000	-2,0353077E-003
30/08/2025 23:49:02.8000	1,433942478084560E+000	-2,0544075E-003
30/08/2025 23:49:26.8000	1,427265141081810E+000	-2,0926071E-003
30/08/2025 23:49:50.8000	1,396614359140393E+000	-2,1690065E-003
30/08/2025 23:50:14.8000	1,383257653594015E+000	-2,1499067E-003
30/08/2025 23:50:38.8000	1,367829310083390E+000	-2,0735073E-003
30/08/2025 23:51:02.8000	1,357075538444519E+000	-2,1499067E-003
30/08/2025 23:51:26.8000	1,338220378684996E+000	-2,2454057E-003
30/08/2025 23:51:50.8000	1,322425808525086E+000	-1,9780083E-003
30/08/2025 23:52:14.8000	1,307286590266227E+000	-2,0544075E-003
30/08/2025 23:52:38.8000	1,292826334285735E+000	-2,1499067E-003
30/08/2025 23:53:02.8000	1,280618280291558E+000	-2,1308069E-003
30/08/2025 23:53:26.8000	1,263503282499311E+000	-2,0926071E-003
30/08/2025 23:53:50.8000	1,251549950814247E+000	-2,1881063E-003
30/08/2025 23:54:14.8000	1,237705843138693E+000	-2,1308069E-003
30/08/2025 23:54:38.8000	1,225833893108368E+000	-2,1690065E-003
30/08/2025 23:55:02.8000	1,206017148566246E+000	-2,0735073E-003
30/08/2025 23:55:26.8000	1,197028159856796E+000	-2,1308069E-003
30/08/2025 23:55:50.8000	1,180962826395033E+000	-2,0735073E-003
30/08/2025 23:56:14.8000	1,171927646374701E+000	-2,0926071E-003
30/08/2025 23:56:38.8000	1,159737687373161E+000	-2,1308069E-003
30/08/2025 23:57:02.8000	1,141399025011063E+000	-2,1117069E-003
30/08/2025 23:57:26.8000	1,137889028906822E+000	-1,9971081E-003
30/08/2025 23:57:50.8000	1,139200703120231E+000	-2,1499067E-003
30/08/2025 23:58:14.8000	1,115376589202881E+000	-2,0544075E-003
30/08/2025 23:58:38.8000	1,107185677313804E+000	-2,0926071E-003
30/08/2025 23:59:02.8000	1,088955500984191E+000	-2,0544075E-003
30/08/2025 23:59:26.8000	1,081712567114828E+000	-2,2072061E-003
30/08/2025 23:59:50.8000	1,066603108978267E+000	-2,1117069E-003
31/08/2025 00:00:14.8000	1,054339387464523E+000	-2,1690065E-003
31/08/2025 00:00:38.8000	1,038547893333433E+000	-2,1881063E-003
31/08/2025 00:01:02.8000	1,024415104901788E+000	-2,0162079E-003
31/08/2025 00:01:26.8000	1,023496756231784E+000	-2,1117069E-003
31/08/2025 00:01:50.8000	1,008989448940754E+000	-2,1881063E-003
31/08/2025 00:02:14.8000	1,001107531952858E+000	-2,1308069E-003
31/08/2025 00:02:38.8000	9,843970767259584E-001	-2,0735073E-003
31/08/2025 00:03:02.8000	9,753651437759387E-001	-2,0735073E-003
31/08/2025 00:03:26.8000	9,600364307880369E-001	-2,1881063E-003
31/08/2025 00:03:50.8000	9,543717026114464E-001	-2,0926071E-003
31/08/2025 00:04:14.8000	9,450981243968002E-001	-2,0353077E-003
31/08/2025 00:04:38.8000	9,337945924282032E-001	-2,1690065E-003
31/08/2025 00:05:01.7522	9,209815757761870E-001	-2,1690065E-003