Folder: marimo-notebooks/data/phase_2a/Sergey/3/20.7/01 eis

Note: README.md
# International Flow Battery Reproducibility Study

## FSU Data Dashboard

This repository contains the data obtained by participants of the Friedrich Schiller University Jena from experiments performed during the international flow battery reproducibility study led by MIT and QUB. The data is evaluated with Python within an interactive Marimo notebook. 

## ðŸš€ Contributing data

Datasets can be contributed via Pull Request. The raw measurement files (BioLogic `*.mpr`) must follow a fixed directory layout so the automated precompute pipeline can process them.

### Directory structure

Place your data under `apps/public/data/` using the following hierarchy:

```
apps/public/data/
  {study_phase}/                 # e.g. phase_2a, phase_2b
    {participant}/               # your participant ID, e.g. P001
      {repetition}/              # measurement repetition: 1, 2, 3, â€¦
        {flow_rate}/             # electrolyte flow rate in mL/min: 3.3, 8.3, 20.7, 25, â€¦
          {technique}/           # see naming convention below
            *.mpr                # BioLogic raw data files
    Temperature/                 # (optional) temperature log per study phase
      DL-200T_temperature.csv    # CSV with columns: datetime, temperature_C
```

### Technique naming convention

Technique directories must use the following numbered prefixes so the precompute script can identify them:

| Directory name          | Description                  |
|-------------------------|------------------------------|
| `00 break-in`           | Break-in / conditioning      |
| `01 eis`                | Electrochemical impedance    |
| `02 polarisation`       | Polarisation curves          |
| `03 charge-discharge`   | Chargeâ€“discharge cycling     |
| `04 post-eis`           | Post-experiment EIS          |
| `05 post-polarisation`  | Post-experiment polarisation |

### Step-by-step

1. **Fork** this repository on GitHub.
2. Clone your fork and create a new branch:
   ```bash
   git checkout -b data/{your-name}
   ```
3. Add your `*.mpr` files into the correct directory structure under `apps/public/data/`.
4. Commit and push:
   ```bash
   git add apps/public/data/
   git commit -m "data: add {your-name} measurements for {phase}"
   git push origin data/{your-name}
   ```
5. Open a **Pull Request** against `main`.

Once the PR is merged, a GitHub Action will automatically:
1. Run the precompute script to extract the raw data into Parquet files.
2. Rebuild and deploy the interactive dashboard to GitHub Pages.

> **Note:** Directories containing `fail` in their name (e.g. `3-failed`) are automatically excluded from processing.

## ðŸ§ª Local Development

### Prerequisites

- **Python â‰¥ 3.12**
- **[uv](https://docs.astral.sh/uv/getting-started/installation/)** â€“ a fast Python package manager

### Setup

Clone the repository and navigate into it:

```bash
git clone https://github.com/fsu-schubert-battery/marimo-notebooks.git
cd marimo-notebooks
```

No manual virtual 

File: C7D1_hr 0,1MFeCN6_in_1M_KCl_3306mL_symmetric_balanced_4_point_PEIS_10mV_C16.mpt
EC-Lab ASCII FILE
Nb header lines : 69

Potentio Electrochemical Impedance Spectroscopy

Run on channel : 16 (SN 21084)
User :
CE vs. WE compliance from -10 V to 10 V
Electrode connection : standard
Potential control : Ewe
Ewe ctrl range : min = -1,00 V, max = 1,00 V
Safety Limits :
	Do not start on E overload
Acquisition started on : 09/03/2025 12:01:18.206
Loaded Setting File :  C:\Users\IOMCguest\Desktop\Local Data\Sergey local\Interlaboratorz studz\Polarization\C7D1\SN50_C7D1_lr 0,1MFeCN6_in_1M_KCl_3306mL_symmetric_balanced_4_point_PEIS_10mV after night_C16.mpr
Saved on :
	File : C7D1_hr 0,1MFeCN6_in_1M_KCl_3306mL_symmetric_balanced_4_point_PEIS_10mV_C16.mpr
	Directory : C:\Users\IOMCguest\Desktop\Local Data\Sergey local\Interlaboratorz studz\Impedance\C7D1\
	Host : 10.232.56.37
Device : VMP3 (SN 0725)
Address : 10.232.56.42
EC-LAB for windows v11.61 (software)
Internet server v11.61 (firmware)
Command interpretor v11.61 (firmware)
Electrode material :
Initial state :
Electrolyte :
Comments :
Mass of active material : 0,001 mg
 at x = 0,000
Molecular weight of active material (at x = 0) : 0,001 g/mol
Atomic weight of intercalated ion : 0,001 g/mol
Acquisition started at : xo = 0,000
Number of e- transfered per intercalated ion : 1
for DX = 1, DQ = 26,802 mA.h
Battery capacity : 0,000 A.h
Electrode surface area : 0,000 cm?
Characteristic mass : 0,001 g
Volume (V) : 0,001 cm?
Cycle Definition : Charge/Discharge alternance
Mode                Single sine
E (V)               0,0000
vs.                 Eoc
tE (h:m:s)          0:00:0,0000
record              0
dI                  0,000
unit dI             mA
dt (s)              0,000
fi                  200,000
unit fi             kHz
ff                  10,000
unit ff             mHz
Nd                  10
Points              per decade
spacing             Logarithmic
Va (mV)             10,0
pw                  0,10
Na                  2
corr                0
E range min (V)     -1,000
E range max (V)     1,000
I Range             Auto
Bandwidth           5
nc cycles           200
goto Ns'            0
nr cycles           0
inc. cycle          0

freq/Hz	Re(Z)/Ohm	-Im(Z)/Ohm	|Z|/Ohm	Phase(Z)/deg	time/s	<Ewe>/V	<I>/mA	Cs/µF	Cp/µF	cycle number	I Range	|Ewe|/V	|I|/A	Ns	(Q-Qo)/mA.h	Re(Y)/Ohm-1	Im(Y)/Ohm-1	|Y|/Ohm-1	Phase(Y)/deg	Re(C)/nF	Im(C)/nF	|C|/nF	Phase(C)/deg	Re(M)	Im(M)	|M|	Phase(M)/deg	Re(Permittivity)	Im(Permittivity)	|Permittivity|	Phase(Permittivity)/deg	Re(Resistivity)/Ohm.cm	Im(Resistivity)/Ohm.cm	|Resistivity|/Ohm.cm	Phase(Resistivity)/deg	Re(Conductivity)/mS/cm	Im(Conductivity)/mS/cm	|Conductivity|/mS/cm	Phase(Conductivity)/deg	Tan(Delta)	Loss Angle(Delta)/deg	dq/mA.h	x	Pwe/W	Rwe/Ohm
1,9999814E+005	2,6014110E-001	-2,1414513E-002	2,6102102E-001	4,7059116E+000	1,306483235355699E+000	-4,7457800E-003	-5,2924919E+000	-3,7160877E+001	-2,5012171E-001	1,000000000000000E+000	9	1,0693545E-003	4,0968135E-003	0	-1,497540040776392E-003	3,8181942E+000	-3,1430933E-001	3,8311090E+000	-4,7059116E+000	-2,5012163E+002	3,0384504E+003	3,0487280E+003	-9,4705910E+001	0,0000000E+000	0,0000000E+000	0,0000000E+000	9,4705910E+001	0,0000000E+000	0,0000000E+000	0,0000000E+000	-9,4705910E+001	0,0000000E+000	0,0000000E+000	0,0000000E+000	4,7059116E+000	0,0000000E+000	0,0000000E+000	0,0000000E+000	-4,7059116E+000	1,2147888E+001	8,5294090E+001	-1,497540040776392E-003	5,587523238536620E-005	2,5117002E-005	8,9670050E-001
1,9980818E+002	2,9537538E-001	4,2916317E-003	2,9540655E-001	-8,3241564E-001	1,861094853730174E+001	-4,5569455E-003	-3,4876742E+000	1,8560275E+005	3,9173199E+001	1,000000000000000E+000	9	1,0867072E-002	3,6786836E-002	0	-1,904498082394764E-002	3,3848081E+000	4,9179282E-002	3,3851652E+000	8,3241564E-001	3,9173063E+004	2,6961305E+006	2,6964150E+006	-8,9167587E+001	0,0000000E+000	0,0000000E+000	0,0000000E+000	8,9167587E+001	0,0000000E+000	0,0000000E+000	0,0000000E+000	-8,9167587E+001	0,0000000E+000	0,0000000E+000	0,0000000E+000	-8,3241564E-001	0,0000000E+000	0,0000000E+000	0,0000000E+000	8,3241564E-001	6,8825890E+001	8,9167587E+001	-4,153922420342786E-004	7,105938407905391E-004	1,5893142E-005	1,3065858E+000
1,9980818E-001	3,4233326E-001	4,8016209E-002	3,4568426E-001	-7,9843102E+000	7,668351321559749E+001	-4,5345863E-003	-3,8668942E+000	1,6588955E+007	3,2006306E+005	1,000000000000000E+000	10	1,0867944E-002	3,1438932E-002	0	-8,684018959264146E-002	2,8647707E+000	4,0181732E-001	2,8928132E+000	7,9843102E+000	3,2006317E+008	2,2819005E+009	2,3042376E+009	-8,2015686E+001	0,0000000E+000	0,0000000E+000	0,0000000E+000	8,2015686E+001	0,0000000E+000	0,0000000E+000	0,0000000E+000	-8,2015686E+001	0,0000000E+000	0,0000000E+000	0,0000000E+000	-7,9843102E+000	0,0000000E+000	0,0000000E+000	0,0000000E+000	7,9843102E+000	7,1295352E+000	8,2015686E+001	-1,421757957537617E-002	3,240124231578138E-003	1,7534765E-005	1,1726688E+000
5,0216069E+003	2,9072595E-001	2,2282060E-003	2,9073450E-001	-4,3912247E-001	1,059145759293409E+003	-4,5552109E-003	-1,5962183E+000	1,4224011E+004	8,3548683E-001	2,000000000000000E+000	9	1,0787783E-002	3,7105273E-002	0	-8,035527968277004E-001	3,4394631E+000	2,6361018E-002	3,4395642E+000	4,3912247E-001	8,3549176E+002	1,0901044E+005	1,0901364E+005	-8,9560875E+001	0,0000000E+000	0,0000000E+000	0,0000000E+000	8,9560875E+001	0,0000000E+000	0,0000000E+000	0,0000000E+000	-8,9560875E+001	0,0000000E+000	0,0000000E+000	0,0000000E+000	-4,3912247E-001	0,0000000E+000	0,0000000E+000	0,0000000E+000	4,3912247E-001	1,3047534E+002	8,9560875E+001	-1,877632010380825E-004	2,998163523786730E-002	7,2711114E-006	2,8537517E+000
5,0144420E+000	3,1179443E-001	8,4062228E-003	3,1190774E-001	-1,5443652E+000	1,073450241519458E+003	-4,5725387E-003	-1,7042420E+000	3,7756925E+006	2,7424968E+003	2,000000000000000E+000	9	1,0863165E-002	3,4828138E-002	0	-8,100012581102070E-001	3,2049117E+000	8,6406946E-002	3,2060764E+000	1,5443652E+000	2,7424965E+006	1,0172170E+008	1,0175866E+008	-8,8455635E+001	0,0000000E+000	0,0000000E+000	0,0000000E+000	8,8455635E+001	0,0000000E+000	0,0000000E+000	0,0000000E+000	-8,8455635E+001	0,0000000E+000	0,0000000E+000	0,0000000E+000	-1,5443652E+000	0,0000000E+000	0,0000000E+000	0,0000000E+000	1,5443652E+000	3,7090908E+001	8,8455635E+001	2,762321293345860E-004	3,022223599836602E-002	7,7927125E-006	2,6830337E+000
1,2618765E+005	2,8189248E-001	-8,2514454E-003	2,8201321E-001	1,6766608E+000	2,096617585183965E+003	-4,7560763E-003	-2,7359288E+000	-1,5285275E+002	-1,3085623E-001	3,000000000000000E+000	9	3,4711873E-003	1,2308598E-002	0	-1,320562879055121E+000	3,5444150E+000	-1,0375073E-001	3,5459332E+000	-1,6766608E+000	-1,3085608E+002	4,4704155E+003	4,4723301E+003	-9,1676659E+001	0,0000000E+000	0,0000000E+000	0,0000000E+000	9,1676659E+001	0,0000000E+000	0,0000000E+000	0,0000000E+000	-9,1676659E+001	0,0000000E+000	0,0000000E+000	0,0000000E+000	1,6766608E+000	0,0000000E+000	0,0000000E+000	0,0000000E+000	-1,6766608E+000	3,4162800E+001	8,8323341E+001	-3,376824043774818E-004	4,927197653322093E-002	1,3012286E-005	1,7383772E+000
[...]
7,9609563E+004	2,8993234E-001	-3,1598557E-003	2,8994957E-001	6,2441885E-001	4,193749697005696E+003	-4,7828229E-003	-6,4593118E-001	-6,3268512E+002	-7,5141042E-002	5,000000000000000E+000	9	2,3331726E-002	8,0468222E-002	0	-1,657014243480830E+000	3,4486709E+000	-3,7585672E-002	3,4488757E+000	-6,2441885E-001	-7,5141197E+001	6,8945610E+003	6,8949707E+003	-9,0624420E+001	0,0000000E+000	0,0000000E+000	0,0000000E+000	9,0624420E+001	0,0000000E+000	0,0000000E+000	0,0000000E+000	-9,0624420E+001	0,0000000E+000	0,0000000E+000	0,0000000E+000	6,2441885E-001	0,0000000E+000	0,0000000E+000	0,0000000E+000	-6,2441885E-001	9,1754929E+001	8,9375580E+001	-3,546041901707486E-004	6,182542930361471E-002	3,0893746E-006	7,4045396E+000
7,9516548E+001	3,0373332E-001	5,3082285E-003	3,0377969E-001	-1,0012341E+000	4,210492167454300E+003	-4,5791976E-003	2,8433046E-001	3,7706219E+005	1,1513165E+002	5,000000000000000E+000	9	1,0865829E-002	3,5768781E-002	0	-1,656098863485217E+000	3,2913568E+000	5,7521757E-002	3,2918594E+000	1,0012341E+000	1,1513188E+005	6,5877570E+006	6,5887630E+006	-8,8998764E+001	0,0000000E+000	0,0000000E+000	0,0000000E+000	8,8998764E+001	0,0000000E+000	0,0000000E+000	0,0000000E+000	-8,8998764E+001	0,0000000E+000	0,0000000E+000	0,0000000E+000	-1,0012341E+000	0,0000000E+000	0,0000000E+000	0,0000000E+000	1,0012341E+000	5,7219337E+001	8,8998764E+001	3,085326732188420E-005	6,179127524523691E-002	-1,3020053E-006	1,6105196E+001
7,9421178E-002	3,8468957E-001	7,6827012E-002	3,9228618E-001	-1,1294049E+001	4,344229526473122E+003	-4,5490521E-003	-1,4011222E-001	2,6083740E+007	1,0004416E+006	5,000000000000000E+000	10	1,0867683E-002	2,7703457E-002	0	-1,673531568283793E+000	2,4997947E+000	4,9923831E-001	2,5491593E+000	1,1294049E+001	1,0004419E+009	5,0094285E+009	5,1083520E+009	-7,8705948E+001	0,0000000E+000	0,0000000E+000	0,0000000E+000	7,8705948E+001	0,0000000E+000	0,0000000E+000	0,0000000E+000	-7,8705948E+001	0,0000000E+000	0,0000000E+000	0,0000000E+000	-1,1294049E+001	0,0000000E+000	0,0000000E+000	0,0000000E+000	1,1294049E+001	5,0072174E+000	7,8705948E+001	-9,601863912278574E-004	6,244171289979266E-002	6,3737781E-007	3,2467205E+001
1,9980818E+003	2,9702350E-001	2,8532215E-003	2,9703721E-001	-5,5036896E-001	5,251665195840702E+003	-4,5721470E-003	5,4094690E-001	2,7917168E+004	2,5758502E+000	6,000000000000000E+000	9	1,0593262E-002	3,5663079E-002	0	-1,774269351030745E+000	3,3664262E+000	3,2338046E-002	3,3665814E+000	5,5036896E-001	2,5758518E+003	2,6814888E+005	2,6816125E+005	-8,9449631E+001	0,0000000E+000	0,0000000E+000	0,0000000E+000	8,9449631E+001	0,0000000E+000	0,0000000E+000	0,0000000E+000	-8,9449631E+001	0,0000000E+000	0,0000000E+000	0,0000000E+000	-5,5036896E-001	0,0000000E+000	0,0000000E+000	0,0000000E+000	5,5036896E-001	1,0410110E+002	8,9449631E+001	9,718071624642555E-005	6,620037501747086E-002	-2,4732888E-006	8,4521179E+000
2,5136747E+000	3,1935534E-001	1,0383990E-002	3,1952411E-001	-1,8623433E+000	5,266034967029933E+003	-4,5616454E-003	5,7945991E-001	6,0974295E+006	6,4397354E+003	6,000000000000000E+000	9	1,0742093E-002	3,3619035E-002	0	-1,772178192882703E+000	3,1280012E+000	1,0170845E-001	3,1296544E+000	1,8623433E+000	6,4397345E+006	1,9805142E+008	1,9815610E+008	-8,8137657E+001	0,0000000E+000	0,0000000E+000	0,0000000E+000	8,8137657E+001	0,0000000E+000	0,0000000E+000	0,0000000E+000	-8,8137657E+001	0,0000000E+000	0,0000000E+000	0,0000000E+000	-1,8623433E+000	0,0000000E+000	0,0000000E+000	0,0000000E+000	1,8623433E+000	3,0754589E+001	8,8137657E+001	6,354155044621113E-004	6,612235109537538E-002	-2,6432906E-006	7,8722367E+000

File: C7D1_hr 0,1MFeCN6_in_1M_KCl_3306mL_symmetric_balanced_4_point_PEIS_10mV_C16.txt
time/s	freq/Hz	Re(Z)/Ohm	-Im(Z)/Ohm
03/09/2025 12:01:19.5125	1,9999814E+005	2,6014110E-001	-2,1414513E-002
03/09/2025 12:01:20.6745	1,0022640E+005	2,8259447E-001	-5,8765966E-003
03/09/2025 12:01:25.1975	5,0224539E+004	2,8578192E-001	-1,8541012E-003
03/09/2025 12:01:26.7795	2,5172580E+004	2,8677294E-001	-1,7733986E-005
03/09/2025 12:01:28.0815	1,2618766E+004	2,8767341E-001	1,2841099E-003
03/09/2025 12:01:29.5883	6,3238188E+003	2,8854495E-001	2,0164892E-003
03/09/2025 12:01:31.2160	3,1669595E+003	2,8966978E-001	2,4857556E-003
03/09/2025 12:01:32.6179	1,5884750E+003	2,9087183E-001	2,7557528E-003
03/09/2025 12:01:34.0187	7,9525409E+002	2,9225880E-001	3,3573657E-003
03/09/2025 12:01:35.4185	3,9859698E+002	2,9369819E-001	3,7547557E-003
03/09/2025 12:01:36.8169	1,9980818E+002	2,9537538E-001	4,2916317E-003
03/09/2025 12:01:38.2184	1,0016024E+002	2,9732591E-001	4,9410579E-003
03/09/2025 12:01:39.6339	5,0208866E+001	2,9957047E-001	5,7935696E-003
03/09/2025 12:01:41.0127	2,5136747E+001	3,0235386E-001	6,8060239E-003
03/09/2025 12:01:42.4719	1,2600809E+001	3,0546975E-001	7,6009887E-003
03/09/2025 12:01:43.8922	6,3105812E+000	3,0877247E-001	8,1745563E-003
03/09/2025 12:01:45.6428	3,1655185E+000	3,1188849E-001	9,3298219E-003
03/09/2025 12:01:48.9801	1,5846856E+000	3,1421879E-001	1,3118858E-002
03/09/2025 12:01:56.3532	7,9443753E-001	3,1847104E-001	2,0636665E-002
03/09/2025 12:02:09.2553	3,9867833E-001	3,2714647E-001	3,2446560E-002
03/09/2025 12:02:34.8895	1,9980818E-001	3,4233326E-001	4,8016209E-002
03/09/2025 12:03:25.9299	1,0013975E-001	3,6642659E-001	6,8156995E-002
03/09/2025 12:05:07.7031	5,0154075E-002	4,1144231E-001	8,9632116E-002
03/09/2025 12:08:30.7187	2,5144994E-002	4,7182313E-001	7,7420890E-002
03/09/2025 12:15:15.8068	1,2576789E-002	4,9889383E-001	4,7406066E-002
03/09/2025 12:18:47.0975	1,5885727E+005	2,7656755E-001	-1,6166883E-002
03/09/2025 12:18:49.5195	7,9609563E+004	2,8615305E-001	-3,6815130E-003
03/09/2025 12:18:53.2015	3,9897566E+004	2,8816694E-001	-1,0869767E-003
03/09/2025 12:18:54.5055	1,9995176E+004	2,8893939E-001	5,8576796E-004
03/09/2025 12:18:55.8095	1,0020785E+004	2,8967506E-001	1,4855171E-003
03/09/2025 12:18:57.3518	5,0216069E+003	2,9072595E-001	2,2282060E-003
03/09/2025 12:18:58.9767	2,5158047E+003	2,9179758E-001	2,7271700E-003
03/09/2025 12:19:00.3787	1,2604036E+003	2,9320359E-001	3,0186325E-003
03/09/2025 12:19:01.7792	6,3181964E+002	2,9453748E-001	3,5490945E-003
03/09/2025 12:19:03.1787	3,1672299E+002	2,9600656E-001	3,9437590E-003
03/09/2025 12:19:04.5815	1,5862943E+002	2,9789412E-001	4,4951695E-003
03/09/2025 12:19:05.9840	7,9516548E+001	2,9981333E-001	5,2305679E-003
03/09/2025 12:19:07.3965	3,9859695E+001	3,0255350E-001	6,0269209E-003
03/09/2025 12:19:08.7760	1,9980818E+001	3,0521834E-001	7,0774141E-003
03/09/2025 12:19:10.2325	1,0016025E+001	3,0858499E-001	7,8412211E-003
03/09/2025 12:19:11.6562	5,0144420E+000	3,1179443E-001	8,4062228E-003
03/09/2025 12:19:13.8158	2,5136747E+000	3,1455567E-001	1,0357105E-002
03/09/2025 12:19:18.8269	1,2596742E+000	3,1727129E-001	1,5125129E-002
03/09/2025 12:19:27.0130	6,3126212E-001	3,2295248E-001	2,4229173E-002
03/09/2025 12:19:43.2302	3,1619310E-001	3,3339933E-001	3,7046038E-002
03/09/2025 12:20:15.4776	1,5846856E-001	3,5064340E-001	5,4382257E-002
03/09/2025 12:21:19.7167	7,9421178E-002	3,8004744E-001	7,6738179E-002
03/09/2025 12:23:27.8300	3,9804459E-002	4,3467712E-001	9,1121204E-002
03/09/2025 12:27:43.3985	1,9949391E-002	4,8664168E-001	6,6461794E-002
03/09/2025 12:36:13.1185	1,0009170E-002	5,0492936E-001	3,9824035E-002
03/09/2025 12:36:14.8236	1,2618765E+005	2,8189248E-001	-8,2514454E-003
03/09/2025 12:36:18.5056	6,3233004E+004	2,8829002E-001	-2,2537725E-003
03/09/2025 12:36:21.0676	3,1686090E+004	2,8979951E-001	-5,2780216E-004
03/09/2025 12:36:22.3706	1,5884798E+004	2,9046428E-001	1,0485763E-003
03/09/2025 12:36:23.7308	7,9597607E+003	2,9127145E-001	1,8500356E-003
03/09/2025 12:36:25.4730	3,9861731E+003	2,9243293E-001	2,4267298E-003
03/09/2025 12:36:26.8750	1,9980818E+003	2,9349408E-001	2,7454924E-003
03/09/2025 12:36:28.2745	1,0016024E+003	2,9479426E-001	3,2099199E-003
03/09/2025 12:36:29.6760	5,0208865E+002	2,9638430E-001	3,7342878E-003
03/09/2025 12:36:31.0735	2,5169135E+002	2,9786247E-001	4,2333612E-003
03/09/2025 12:36:32.4763	1,2600809E+002	2,9991710E-001	4,6353401E-003
03/09/2025 12:36:33.8947	6,3160763E+001	3,0197364E-001	5,6253569E-003
03/09/2025 12:36:35.2743	3,1672298E+001	3,0466518E-001	6,4006802E-003
03/09/2025 12:36:36.6520	1,5857577E+001	3,0756122E-001	7,4728779E-003
03/09/2025 12:36:38.2382	7,9557004E+000	3,1106544E-001	8,1555545E-003
03/09/2025 12:36:39.6608	3,9859698E+000	3,1395799E-001	8,8842334E-003
03/09/2025 12:36:42.3398	1,9970603E+000	3,1647000E-001	1,1589170E-002
03/09/2025 12:36:48.3953	1,0000639E+000	3,1989533E-001	1,7568454E-002
03/09/2025 12:36:58.6722	5,0118679E-001	3,2663763E-001	2,8083164E-002
03/09/2025 12:37:19.0620	2,5117347E-001	3,3965641E-001	4,2957719E-002
03/09/2025 12:37:59.6355	1,2590654E-001	3,6088490E-001	6,1179563E-002
03/09/2025 12:39:20.4905	6,3101739E-002	3,9598534E-001	8,4593631E-002
03/09/2025 12:42:01.8241	3,1592205E-002	4,5718494E-001	8,7673917E-002
03/09/2025 12:47:23.3803	1,5860692E-002	4,9699306E-001	5,6693766E-002
03/09/2025 12:53:41.3876	1,9999814E+005	2,6425385E-001	-1,8204642E-002
03/09/2025 12:53:42.6896	1,0022640E+005	2,8681919E-001	-4,8634135E-003
03/09/2025 12:53:47.6326	5,0224539E+004	2,9029021E-001	-1,6582506E-003
03/09/2025 12:53:49.2156	2,5172580E+004	2,9125053E-001	1,1299550E-004
03/09/2025 12:53:50.5186	1,2618766E+004	2,9209080E-001	1,2684112E-003
03/09/2025 12:53:52.0264	6,3238188E+003	2,9289290E-001	2,0169322E-003
03/09/2025 12:53:53.6531	3,1669595E+003	2,9413858E-001	2,5766338E-003
03/09/2025 12:53:55.0541	1,5884750E+003	2,9526931E-001	2,9189594E-003
03/09/2025 12:53:56.4549	7,9525409E+002	2,9657587E-001	3,2800066E-003
03/09/2025 12:53:57.8556	3,9859698E+002	2,9814881E-001	3,7539471E-003
03/09/2025 12:53:59.2541	1,9980818E+002	3,0007720E-001	4,2748321E-003
03/09/2025 12:54:00.6556	1,0016024E+002	3,0183294E-001	5,0744065E-003
03/09/2025 12:54:02.0711	5,0208866E+001	3,0403233E-001	5,6933155E-003
03/09/2025 12:54:03.4498	2,5136747E+001	3,0687308E-001	6,8763583E-003
03/09/2025 12:54:04.9090	1,2600809E+001	3,1021735E-001	7,6332567E-003
03/09/2025 12:54:06.3293	6,3105812E+000	3,1383562E-001	8,4489947E-003
03/09/2025 12:54:08.0799	3,1655185E+000	3,1637338E-001	9,1996193E-003
03/09/2025 12:54:11.4172	1,5846856E+000	3,1880271E-001	1,3022225E-002
03/09/2025 12:54:18.7893	7,9443753E-001	3,2335451E-001	2,0368440E-002
03/09/2025 12:54:31.6925	3,9867833E-001	3,3137986E-001	3,2103471E-002
03/09/2025 12:54:57.3265	1,9980818E-001	3,4628105E-001	4,8904553E-002
03/09/2025 12:55:48.3668	1,0013975E-001	3,7224522E-001	6,8686813E-002
03/09/2025 12:57:30.1410	5,0154075E-002	4,1605607E-001	8,9641057E-002
03/09/2025 13:00:53.1543	2,5144994E-002	4,7646761E-001	7,8838058E-002
03/09/2025 13:07:38.2426	1,2576789E-002	5,0459272E-001	4,7322404E-002
03/09/2025 13:11:09.5337	1,5885727E+005	2,7703786E-001	-1,1806997E-002
03/09/2025 13:11:11.9557	7,9609563E+004	2,8993234E-001	-3,1598557E-003
03/09/2025 13:11:15.9187	3,9897566E+004	2,9191309E-001	-9,3334919E-004
03/09/2025 13:11:17.2227	1,9995176E+004	2,9282629E-001	6,5800967E-004
03/09/2025 13:11:18.5247	1,0020785E+004	2,9343727E-001	1,6155096E-003
03/09/2025 13:11:20.0669	5,0216069E+003	2,9450023E-001	2,2491380E-003
03/09/2025 13:11:21.6909	2,5158047E+003	2,9561892E-001	2,7317114E-003
03/09/2025 13:11:23.0919	1,2604036E+003	2,9689696E-001	3,1199083E-003
03/09/2025 13:11:24.4934	6,3181964E+002	2,9823270E-001	3,6807901E-003
03/09/2025 13:11:25.8928	3,1672299E+002	2,9997730E-001	4,0568262E-003
03/09/2025 13:11:27.2957	1,5862943E+002	3,0161613E-001	4,6384563E-003
03/09/2025 13:11:28.6982	7,9516548E+001	3,0373332E-001	5,3082285E-003
03/09/2025 13:11:30.1127	3,9859695E+001	3,0614945E-001	6,2717185E-003
03/09/2025 13:11:31.4921	1,9980818E+001	3,0912039E-001	7,1283896E-003
03/09/2025 13:11:32.9486	1,0016025E+001	3,1256109E-001	8,0101667E-003
03/09/2025 13:11:34.3724	5,0144420E+000	3,1568384E-001	8,4695388E-003
03/09/2025 13:11:36.5319	2,5136747E+000	3,1832758E-001	1,0452152E-002
03/09/2025 13:11:41.5431	1,2596742E+000	3,2115436E-001	1,5077501E-002
03/09/2025 13:11:49.7288	6,3126212E-001	3,2681268E-001	2,3932368E-002
03/09/2025 13:12:05.9470	3,1619310E-001	3,3688411E-001	3,6947060E-002
03/09/2025 13:12:38.1946	1,5846856E-001	3,5444576E-001	5,5253770E-002
03/09/2025 13:13:42.4355	7,9421178E-002	3,8468957E-001	7,6827012E-002
03/09/2025 13:15:50.5480	3,9804459E-002	4,3861133E-001	9,1568097E-002
03/09/2025 13:20:06.1164	1,9949391E-002	4,9134555E-001	6,7750633E-002
03/09/2025 13:28:35.8365	1,0009170E-002	5,0957960E-001	3,9913584E-002
03/09/2025 13:28:37.5417	1,2618765E+005	2,8445563E-001	-5,7819220E-003
03/09/2025 13:28:41.3637	6,3233004E+004	2,9180613E-001	-2,0129588E-003
03/09/2025 13:28:44.0657	3,1686090E+004	2,9324487E-001	-2,8585916E-004
03/09/2025 13:28:45.3677	1,5884798E+004	2,9392892E-001	9,3870389E-004
03/09/2025 13:28:46.7270	7,9597607E+003	2,9481849E-001	1,9957803E-003
03/09/2025 13:28:48.4702	3,9861731E+003	2,9581684E-001	2,4157162E-003
03/09/2025 13:28:49.8712	1,9980818E+003	2,9702350E-001	2,8532215E-003
03/09/2025 13:28:51.2707	1,0016024E+003	2,9849389E-001	3,1437434E-003
03/09/2025 13:28:52.6711	5,0208865E+002	2,9993570E-001	3,6348291E-003
03/09/2025 13:28:54.0686	2,5169135E+002	3,0156615E-001	4,1933195E-003
03/09/2025 13:28:55.4714	1,2600809E+002	3,0341527E-001	4,8530195E-003
03/09/2025 13:28:56.8878	6,3160763E+001	3,0569839E-001	5,5310004E-003
03/09/2025 13:28:58.2674	3,1672298E+001	3,0818716E-001	6,2593929E-003
03/09/2025 13:28:59.6452	1,5857577E+001	3,1121367E-001	7,3697120E-003
03/09/2025 13:29:01.2324	7,9557004E+000	3,1459633E-001	8,1286943E-003
03/09/2025 13:29:02.6549	3,9859698E+000	3,1793755E-001	9,0701673E-003
03/09/2025 13:29:04.2410	2,5136747E+000	3,1935534E-001	1,0383990E-002